experimentalBlock.thisRepN,experimentalBlock.thisTrialN,experimentalBlock.thisN,experimentalBlock.thisIndex,thisRow.t,notes,Instruction.started,instImage.started,Instruction.stopped,Instruction2.started,instImage2.started,Instruction2.stopped,starttask.started,startText.started,moveOn_3.started,starttask.stopped,moveOn_3.keys,moveOn_3.rt,moveOn_3.duration,sequenceGeneration.started,sequenceGeneration.stopped,experimentalTrial.started,myExp.trial,myExp.word,myExp.color,myExp.congruent,myExp.expectedResponse,stroopStim.started,stroopResp.started,experimentalTrial.stopped,myExp.observedResponse,myExp.trialDuration,myExp.Accuracy,myExp.RT_allTrials,myExp.RT_correctTrials,myExp.step,stroopResp.keys,stroopResp.corr,stroopResp.rt,stroopResp.duration,blank.started,fbSound.started,blankPeriod.started,fbSound.stopped,blank.stopped,stroopStim.stopped,stroopResp.stopped,End.started,endImage.started,endText.started,moveOn_4.started,End.stopped,moveOn_4.keys,moveOn_4.rt,moveOn_4.duration,participant,date,expName,psychopyVersion,frameRate,expStart,
,,,,,,0.00510989999929734,0.0355887999994593,9.662313499999073,9.6623555999995,9.676616799999465,11.595219999999244,11.5952699999998,11.606982699999207,11.606982699999207,12.443350499999724,space,0.8322803000010026,None,,,,,,,,,,,,,,,,,,,,,,,,,,,,,,,,,,,,,01,2025-08-21_13h48.29.437,adaptiveStroop,2023.2.1,59.983360615849456,2025-08-21 13h48.52.437684 +0100,
0,0,0,0,13.01639140000043,,,,,,,,,,,,,,,12.44351160000042,12.941300099999353,12.981962399999247,1,blue,green,0.0,c,13.01639140000043,13.01639140000043,13.724928100000398,c,1.0980918999994174,1.0,0.6919500000003609,0.6919500000003609,-0.05,c,1,0.6919500000003609,None,13.739849999999933,0.0009489999993093079,0.0009489999993093079,0.3958628000000317,14.141387600000598,,,,,,,,,,,01,2025-08-21_13h48.29.437,adaptiveStroop,2023.2.1,59.983360615849456,2025-08-21 13h48.52.437684 +0100,
1,0,1,0,14.161204800000633,,,,,,,,,,,,,,,,,14.143836499999452,2,red,red,1.0,m,14.161204800000633,14.161204800000633,14.741356399999859,m,1.0480918999994173,1.0,0.5633253999985754,0.5633253999985754,0.0,m,1,0.5633253999985754,None,14.745647899999312,0.00044689999958791304,0.00044689999958791304,0.47222420000070997,15.224476699999286,,,,,,,,,,,01,2025-08-21_13h48.29.437,adaptiveStroop,2023.2.1,59.983360615849456,2025-08-21 13h48.52.437684 +0100,
2,0,2,0,15.239517699999851,,,,,,,,,,,,,,,,,15.225333899999896,3,blue,green,0.0,c,15.239517699999851,15.239517699999851,15.79230169999937,m,1.0480918999994173,0.0,0.5493989000005968,,0.05,m,0,0.5493989000005968,None,15.79717410000012,0.0006966999990254408,0.0006966999990254408,0.4879241999988153,16.29053179999937,,,,,,,,,,,01,2025-08-21_13h48.29.437,adaptiveStroop,2023.2.1,59.983360615849456,2025-08-21 13h48.52.437684 +0100,
3,0,3,0,16.30759070000022,,,,,,,,,,,,,,,,,16.29409080000005,4,red,yellow,0.0,s,16.30759070000022,16.30759070000022,16.774967800000013,s,1.0980918999994174,1.0,0.45900499999879685,0.45900499999879685,-0.05,s,1,0.45900499999879685,None,16.779490299999452,0.00061939999977767,0.00061939999977767,0.6283509999993839,17.413180399998964,,,,,,,,,,,01,2025-08-21_13h48.29.437,adaptiveStroop,2023.2.1,59.983360615849456,2025-08-21 13h48.52.437684 +0100,
4,0,4,0,17.43745730000046,,,,,,,,,,,,,,,,,17.41428420000011,5,yellow,yellow,1.0,s,17.43745730000046,17.43745730000046,17.910134599998855,s,1.0480918999994173,1.0,0.46890650000023015,0.46890650000023015,0.0,s,1,0.46890650000023015,None,17.91606429999956,0.0011202999994566198,0.0011202999994566198,0.5686688999994658,18.4892104999999,,,,,,,,,,,01,2025-08-21_13h48.29.437,adaptiveStroop,2023.2.1,59.983360615849456,2025-08-21 13h48.52.437684 +0100,
5,0,5,0,18.501468599999498,,,,,,,,,,,,,,,,,18.490253800000573,6,blue,blue,1.0,l,18.501468599999498,18.501468599999498,18.94267729999956,l,1.0480918999994173,1.0,0.42324050000024727,0.42324050000024727,0.0,l,1,0.42324050000024727,None,18.948733999999604,0.0008104999997158302,0.0008104999997158302,0.6138233999990916,19.567259899999044,,,,,,,,,,,01,2025-08-21_13h48.29.437,adaptiveStroop,2023.2.1,59.983360615849456,2025-08-21 13h48.52.437684 +0100,
6,0,6,0,19.57891059999929,,,,,,,,,,,,,,,,,19.568232100000387,7,yellow,green,0.0,c,19.57891059999929,19.57891059999929,20.258887300000424,c,1.0480918999994173,1.0,0.6643679999997403,0.6643679999997403,-0.05,c,1,0.6643679999997403,None,20.264583700000003,0.000821600000563194,0.000821600000563194,0.37423540000054345,20.645328900000095,,,,,,,,,,,01,2025-08-21_13h48.29.437,adaptiveStroop,2023.2.1,59.983360615849456,2025-08-21 13h48.52.437684 +0100,
7,0,7,0,20.669686499999443,,,,,,,,,,,,,,,,,20.64731589999974,8,green,red,0.0,m,20.669686499999443,20.669686499999443,21.043938400000116,m,0.9980918999994173,1.0,0.3705515000001469,0.3705515000001469,-0.05,m,1,0.3705515000001469,None,21.04958549999901,0.0009406000008311821,0.0009406000008311821,0.6160350000009203,21.67038229999889,,,,,,,,,,,01,2025-08-21_13h48.29.437,adaptiveStroop,2023.2.1,59.983360615849456,2025-08-21 13h48.52.437684 +0100,
8,0,8,0,21.68215489999966,,,,,,,,,,,,,,,,,21.671671099999003,9,yellow,yellow,1.0,s,21.68215489999966,21.68215489999966,22.12579039999946,s,0.9480918999994172,1.0,0.43336249999993015,0.43336249999993015,0.0,s,1,0.43336249999993015,None,22.131385099999534,0.000734799999918323,0.000734799999918323,0.5052248000010877,22.642727500000547,,,,,,,,,,,01,2025-08-21_13h48.29.437,adaptiveStroop,2023.2.1,59.983360615849456,2025-08-21 13h48.52.437684 +0100,
9,0,9,0,22.658101900000474,,,,,,,,,,,,,,,,,22.644453400000202,10,red,blue,0.0,l,22.658101900000474,22.658101900000474,23.242218600000342,l,0.9480918999994172,1.0,0.5803513999999268,0.5803513999999268,-0.05,l,1,0.5803513999999268,None,23.248401799999556,0.0008150000012392411,0.0008150000012392411,0.3582384000001184,23.607770200000232,,,,,,,,,,,01,2025-08-21_13h48.29.437,adaptiveStroop,2023.2.1,59.983360615849456,2025-08-21 13h48.52.437684 +0100,
10,0,10,0,23.624241999999867,,,,,,,,,,,,,,,,,23.609257799998886,11,blue,blue,1.0,l,23.624241999999867,23.624241999999867,24.091297799999666,l,0.8980918999994172,1.0,0.45239390000097046,0.45239390000097046,0.0,l,1,0.45239390000097046,None,24.095488299999488,0.00047850000009930227,0.00047850000009930227,0.4345945999994001,24.536196699998982,,,,,,,,,,,01,2025-08-21_13h48.29.437,adaptiveStroop,2023.2.1,59.983360615849456,2025-08-21 13h48.52.437684 +0100,
11,0,11,0,24.551177199999074,,,,,,,,,,,,,,,,,24.538955399999395,12,red,red,1.0,m,24.551177199999074,24.551177199999074,25.30777239999952,m,0.8980918999994172,1.0,0.7469816000011633,0.7469816000011633,0.0,m,1,0.7469816000011633,None,25.31310200000007,0.0005660999995598104,0.0005660999995598104,0.14123759999893082,25.459840199999235,,,,,,,,,,,01,2025-08-21_13h48.29.437,adaptiveStroop,2023.2.1,59.983360615849456,2025-08-21 13h48.52.437684 +0100,
12,0,12,0,25.471934600000168,,,,,,,,,,,,,,,,,25.461155499999222,13,blue,green,0.0,c,25.471934600000168,25.471934600000168,26.075052700000015,c,0.8980918999994172,1.0,0.5991969000006065,0.5991969000006065,-0.05,c,1,0.5991969000006065,None,26.080931399999827,0.0010407999998278683,0.0010407999998278683,0.28907689999869035,26.375073400000474,,,,,,,,,,,01,2025-08-21_13h48.29.437,adaptiveStroop,2023.2.1,59.983360615849456,2025-08-21 13h48.52.437684 +0100,
13,0,13,0,26.389653700000054,,,,,,,,,,,,,,,,,26.376304399998844,14,green,red,0.0,m,26.389653700000054,26.389653700000054,27.20888819999891,m,0.8480918999994171,1.0,0.8068089000007603,0.8068089000007603,-0.05,m,1,0.8068089000007603,None,27.21435659999952,0.0008280000001832377,0.0008280000001832377,0.041485499999907915,27.273770899999363,,,,,,,,,,,01,2025-08-21_13h48.29.437,adaptiveStroop,2023.2.1,59.983360615849456,2025-08-21 13h48.52.437684 +0100,
14,0,14,0,27.292722899999717,,,,,,,,,,,,,,,,,27.276233799999318,15,blue,blue,1.0,l,27.292722899999717,27.292722899999717,28.04200320000018,l,0.7980918999994171,1.0,0.7371692999986408,0.7371692999986408,0.0,l,1,0.7371692999986408,None,28.047587799999746,0.0007203000004665228,0.0007203000004665228,0.05034659999910218,28.121487599999455,,,,,,,,,,,01,2025-08-21_13h48.29.437,adaptiveStroop,2023.2.1,59.983360615849456,2025-08-21 13h48.52.437684 +0100,
15,0,15,0,28.138125899999068,,,,,,,,,,,,,,,,,28.123738599999342,16,red,green,0.0,c,28.138125899999068,28.138125899999068,28.725891399999455,c,0.7980918999994171,1.0,0.5842079000012745,0.5842079000012745,-0.05,c,1,0.5842079000012745,None,28.731596399999034,0.0008252999996329891,0.0008252999996329891,0.20432230000005802,28.93736639999952,,,,,,,,,,,01,2025-08-21_13h48.29.437,adaptiveStroop,2023.2.1,59.983360615849456,2025-08-21 13h48.52.437684 +0100,
16,0,16,0,28.95478700000058,,,,,,,,,,,,,,,,,28.939689299999372,17,blue,red,0.0,m,28.95478700000058,28.95478700000058,29.658167699999467,m,0.748091899999417,1.0,0.6915389999994659,0.6915389999994659,-0.05,m,1,0.6915389999994659,None,29.665204699998867,0.0008438000004389323,0.0008438000004389323,0.04526119999900402,29.72788009999931,,,,,,,,,,,01,2025-08-21_13h48.29.437,adaptiveStroop,2023.2.1,59.983360615849456,2025-08-21 13h48.52.437684 +0100,
17,0,17,0,29.7450501000003,,,,,,,,,,,,,,,,,29.72958649999964,18,yellow,yellow,1.0,s,29.7450501000003,29.7450501000003,30.27548769999885,s,0.698091899999417,1.0,0.5143995999987965,0.5143995999987965,0.0,s,1,0.5143995999987965,None,30.282744000000093,0.0007456000003003282,0.0007456000003003282,0.17319099999986065,30.457273599999098,,,,,,,,,,,01,2025-08-21_13h48.29.437,adaptiveStroop,2023.2.1,59.983360615849456,2025-08-21 13h48.52.437684 +0100,
18,0,18,0,30.47249720000036,,,,,,,,,,,,,,,,,30.458831800000553,19,blue,green,0.0,c,30.47249720000036,30.47249720000036,31.042091899998923,c,0.698091899999417,1.0,0.5602225999991788,0.5602225999991788,-0.05,c,1,0.5602225999991788,None,31.047987699999794,0.0007000000005064066,0.0007000000005064066,0.12831590000132564,31.177576699999918,,,,,,,,,,,01,2025-08-21_13h48.29.437,adaptiveStroop,2023.2.1,59.983360615849456,2025-08-21 13h48.52.437684 +0100,
19,0,19,0,31.19238099999893,,,,,,,,,,,,,,,,,31.179214699999648,20,red,red,1.0,m,31.19238099999893,31.19238099999893,31.759338500000013,m,0.648091899999417,1.0,0.563964400000259,0.563964400000259,0.0,m,1,0.563964400000259,None,31.765388499999972,0.0008545000000594882,0.0008545000000594882,0.07311389999995299,31.84420080000018,,,,,,,,,,,01,2025-08-21_13h48.29.437,adaptiveStroop,2023.2.1,59.983360615849456,2025-08-21 13h48.52.437684 +0100,
20,0,20,0,31.862901099999362,,,,,,,,,,,,,,,,,31.846222099999068,21,blue,green,0.0,c,31.862901099999362,31.862901099999362,32.42601680000007,c,0.648091899999417,1.0,0.5582754000006389,0.5582754000006389,-0.05,c,1,0.5582754000006389,None,32.43216299999949,0.0008448000007774681,0.0008448000007774681,0.0805385000003298,32.514483900000414,,,,,,,,,,,01,2025-08-21_13h48.29.437,adaptiveStroop,2023.2.1,59.983360615849456,2025-08-21 13h48.52.437684 +0100,
21,0,21,0,32.53585229999953,,,,,,,,,,,,,,,,,32.51628189999974,22,green,red,0.0,m,32.53585229999953,32.53585229999953,33.07534769999984,m,0.5980918999994169,1.0,0.5212119000007078,0.5212119000007078,-0.05,m,1,0.5212119000007078,None,33.081524699999136,0.000865699999849312,0.000865699999849312,0.06689629999891622,33.1590099999994,,,,,,,,,,,01,2025-08-21_13h48.29.437,adaptiveStroop,2023.2.1,59.983360615849456,2025-08-21 13h48.52.437684 +0100,
22,0,22,0,33.17870109999967,,,,,,,,,,,,,,,,,33.16096839999955,23,blue,blue,1.0,l,33.17870109999967,33.17870109999967,33.69170099999974,l,0.5480918999994169,1.0,0.49728399999912654,0.49728399999912654,0.0,l,1,0.49728399999912654,None,33.69785039999988,0.0006568000007973751,0.0006568000007973751,0.041340000001582666,33.75314450000042,,,,,,,,,,,01,2025-08-21_13h48.29.437,adaptiveStroop,2023.2.1,59.983360615849456,2025-08-21 13h48.52.437684 +0100,
23,0,23,0,33.771193000000494,,,,,,,,,,,,,,,,,33.75541659999908,24,red,yellow,0.0,s,33.771193000000494,33.771193000000494,34.30712399999902,nan,0.5480918999994169,0.0,,,0.05,None,0,,,34.31064519999927,0.0006839999987278134,0.0006839999987278134,0.04522459999861894,34.3738016999996,34.322045799999614,34.322045799999614,,,,,,,,,01,2025-08-21_13h48.29.437,adaptiveStroop,2023.2.1,59.983360615849456,2025-08-21 13h48.52.437684 +0100,
24,0,24,0,34.39011339999888,,,,,,,,,,,,,,,,,34.37580789999993,25,yellow,green,0.0,c,34.39011339999888,34.39011339999888,34.97416329999942,nan,0.5980918999994169,0.0,,,0.05,None,0,,,34.97776469999917,0.0006451000008382834,0.0006451000008382834,0.04464010000083363,35.034007199999905,34.98879459999989,34.98879459999989,,,,,,,,,01,2025-08-21_13h48.29.437,adaptiveStroop,2023.2.1,59.983360615849456,2025-08-21 13h48.52.437684 +0100,
25,0,25,0,35.052520899998854,,,,,,,,,,,,,,,,,35.0359927999998,26,green,green,1.0,c,35.052520899998854,35.052520899998854,35.47487150000052,c,0.648091899999417,1.0,0.4049073000005592,0.4049073000005592,0.0,c,1,0.4049073000005592,None,35.482692899999165,0.0008999000001495006,0.0008999000001495006,0.2326652000010654,35.71633099999963,,,,,,,,,,,01,2025-08-21_13h48.29.437,adaptiveStroop,2023.2.1,59.983360615849456,2025-08-21 13h48.52.437684 +0100,
26,0,26,0,35.73592689999896,,,,,,,,,,,,,,,,,35.717499000000316,27,yellow,yellow,1.0,s,35.73592689999896,35.73592689999896,36.14113290000023,s,0.648091899999417,1.0,0.3961366999992606,0.3961366999992606,0.0,s,1,0.3961366999992606,None,36.14470280000023,0.00040040000021690503,0.00040040000021690503,0.24147809999885794,36.391861099999005,,,,,,,,,,,01,2025-08-21_13h48.29.437,adaptiveStroop,2023.2.1,59.983360615849456,2025-08-21 13h48.52.437684 +0100,
27,0,27,0,36.40217610000036,,,,,,,,,,,,,,,,,36.39294870000049,28,red,green,0.0,c,36.40217610000036,36.40217610000036,36.89173870000013,c,0.648091899999417,1.0,0.4855351000005612,0.4855351000005612,-0.05,c,1,0.4855351000005612,None,36.897909100000106,0.0007102999989001546,0.0007102999989001546,0.15386499999840453,37.053344500000094,,,,,,,,,,,01,2025-08-21_13h48.29.437,adaptiveStroop,2023.2.1,59.983360615849456,2025-08-21 13h48.52.437684 +0100,
28,0,28,0,37.07041329999993,,,,,,,,,,,,,,,,,37.05550829999993,29,blue,red,0.0,m,37.07041329999993,37.07041329999993,37.608176300000196,m,0.5980918999994169,1.0,0.5296330000001035,0.5296330000001035,-0.05,m,1,0.5296330000001035,None,37.613066300000355,0.0006382999999914318,0.0006382999999914318,0.057998300000690506,37.6891930999991,,,,,,,,,,,01,2025-08-21_13h48.29.437,adaptiveStroop,2023.2.1,59.983360615849456,2025-08-21 13h48.52.437684 +0100,
29,0,29,0,37.70441260000007,,,,,,,,,,,,,,,,,37.690918799999054,30,red,red,1.0,m,37.70441260000007,37.70441260000007,38.158552099999724,m,0.5480918999994169,1.0,0.43993549999868264,0.43993549999868264,0.0,m,1,0.43993549999868264,None,38.16456629999993,0.0010935000009340001,0.0010935000009340001,0.09969720000117377,38.2703889000004,,,,,,,,,,,01,2025-08-21_13h48.29.437,adaptiveStroop,2023.2.1,59.983360615849456,2025-08-21 13h48.52.437684 +0100,
30,0,30,0,38.2906208000004,,,,,,,,,,,,,,,,,38.27248719999989,31,yellow,blue,0.0,l,38.2906208000004,38.2906208000004,38.67373419999967,l,0.5480918999994169,1.0,0.37693810000018857,0.37693810000018857,-0.05,l,1,0.37693810000018857,None,38.67850559999897,0.0004673000003094785,0.0004673000003094785,0.16097400000035123,38.845695399999386,,,,,,,,,,,01,2025-08-21_13h48.29.437,adaptiveStroop,2023.2.1,59.983360615849456,2025-08-21 13h48.52.437684 +0100,
31,0,31,0,38.8616693999993,,,,,,,,,,,,,,,,,38.847655999999915,32,red,yellow,0.0,s,38.8616693999993,38.8616693999993,39.356995899999674,nan,0.4980918999994169,0.0,,,0.05,None,0,,,39.36047739999958,0.0005841000001964858,0.0005841000001964858,0.045412400000714115,39.424347500000295,39.37200850000045,39.37200850000045,,,,,,,,,01,2025-08-21_13h48.29.437,adaptiveStroop,2023.2.1,59.983360615849456,2025-08-21 13h48.52.437684 +0100,
32,0,32,0,39.441611599999305,,,,,,,,,,,,,,,,,39.42632980000053,33,blue,blue,1.0,l,39.441611599999305,39.441611599999305,39.907623900000544,l,0.5480918999994169,1.0,0.45571879999988596,0.45571879999988596,0.0,l,1,0.45571879999988596,None,39.91166279999925,0.0004581000011967262,0.0004581000011967262,0.08149620000040159,39.99815689999923,,,,,,,,,,,01,2025-08-21_13h48.29.437,adaptiveStroop,2023.2.1,59.983360615849456,2025-08-21 13h48.52.437684 +0100,
33,0,33,0,40.009172500000204,,,,,,,,,,,,,,,,,39.999294699999155,34,red,red,1.0,m,40.009172500000204,40.009172500000204,40.49123300000065,m,0.5480918999994169,1.0,0.4693115999998554,0.4693115999998554,0.0,m,1,0.4693115999998554,None,40.49796740000056,0.0007798000006005168,0.0007798000006005168,0.0686251999995875,40.56843739999931,,,,,,,,,,,01,2025-08-21_13h48.29.437,adaptiveStroop,2023.2.1,59.983360615849456,2025-08-21 13h48.52.437684 +0100,
34,0,34,0,40.59189370000058,,,,,,,,,,,,,,,,,40.570520499999475,35,green,yellow,0.0,s,40.59189370000058,40.59189370000058,41.10785829999986,s,0.5480918999994169,1.0,0.5065890000005311,0.5065890000005311,-0.05,s,1,0.5065890000005311,None,41.113177299999734,0.0006881000008434057,0.0006881000008434057,0.042342400000052294,41.1734536999993,,,,,,,,,,,01,2025-08-21_13h48.29.437,adaptiveStroop,2023.2.1,59.983360615849456,2025-08-21 13h48.52.437684 +0100,
35,0,35,0,41.189152099999774,,,,,,,,,,,,,,,,,41.17527349999909,36,red,green,0.0,c,41.189152099999774,41.189152099999774,41.64061369999945,c,0.4980918999994169,1.0,0.43361189999995986,0.43361189999995986,-0.05,c,1,0.43361189999995986,None,41.64575519999926,0.0007994999996299157,0.0007994999996299157,0.05380270000023302,41.71819809999943,,,,,,,,,,,01,2025-08-21_13h48.29.437,adaptiveStroop,2023.2.1,59.983360615849456,2025-08-21 13h48.52.437684 +0100,
36,0,36,0,41.73755119999987,,,,,,,,,,,,,,,,,41.72012739999991,37,green,green,1.0,c,41.73755119999987,41.73755119999987,42.16089060000013,c,0.4480918999994169,1.0,0.41860339999948337,0.41860339999948337,0.0,c,1,0.41860339999948337,None,42.16659289999916,0.0006809000005887356,0.0006809000005887356,0.038881899999978486,42.22385699999904,,,,,,,,,,,01,2025-08-21_13h48.29.437,adaptiveStroop,2023.2.1,59.983360615849456,2025-08-21 13h48.52.437684 +0100,
37,0,37,0,42.24527289999969,,,,,,,,,,,,,,,,,42.225631299999804,38,yellow,blue,0.0,l,42.24527289999969,42.24527289999969,42.69024580000041,nan,0.4480918999994169,0.0,,,0.05,None,0,,,42.69364239999959,0.0006661000006715767,0.0006661000006715767,0.044986900000367314,42.75338939999892,42.70547929999884,42.70547929999884,,,,,,,,,01,2025-08-21_13h48.29.437,adaptiveStroop,2023.2.1,59.983360615849456,2025-08-21 13h48.52.437684 +0100,
38,0,38,0,42.77258040000015,,,,,,,,,,,,,,,,,42.75558799999999,39,green,green,1.0,c,42.77258040000015,42.77258040000015,42.82434459999968,l,0.4980918999994169,0.0,0.03588029999991704,,0.0,l,0,0.03588029999991704,None,42.83066669999971,0.0006551999995281221,0.0006551999995281221,0.45217129999946337,43.28725149999991,,,,,,,,,,,01,2025-08-21_13h48.29.437,adaptiveStroop,2023.2.1,59.983360615849456,2025-08-21 13h48.52.437684 +0100,
39,0,39,0,43.2980435999998,,,,,,,,,,,,,,,,,43.28851810000015,40,blue,blue,1.0,l,43.2980435999998,43.2980435999998,43.789759799999956,nan,0.4980918999994169,0.0,,,0.0,None,0,,,43.79254889999902,0.0005550999994738959,0.0005550999994738959,0.04637970000112546,43.85344780000014,43.80528439999944,43.80528439999944,,,,,,,,,01,2025-08-21_13h48.29.437,adaptiveStroop,2023.2.1,59.983360615849456,2025-08-21 13h48.52.437684 +0100,
40,0,40,0,43.87481669999943,,,,,,,,,,,,,,,,,43.85617640000055,41,yellow,green,0.0,c,43.87481669999943,43.87481669999943,44.35681359999944,nan,0.4980918999994169,0.0,,,0.05,None,0,,,44.361224799999036,0.0009516999998595566,0.0009516999998595566,0.04398339999897871,44.42331860000013,44.37160819999917,44.37160819999917,,,,,,,,,01,2025-08-21_13h48.29.437,adaptiveStroop,2023.2.1,59.983360615849456,2025-08-21 13h48.52.437684 +0100,
41,0,41,0,44.443163699999786,,,,,,,,,,,,,,,,,44.42560109999977,42,blue,blue,1.0,l,44.443163699999786,44.443163699999786,44.540946499999336,c,0.5480918999994169,0.0,0.09094059999915771,,0.0,c,0,0.09094059999915771,None,44.546796799999356,0.000659700001051533,0.000659700001051533,0.44674830000076327,44.99847349999982,,,,,,,,,,,01,2025-08-21_13h48.29.437,adaptiveStroop,2023.2.1,59.983360615849456,2025-08-21 13h48.52.437684 +0100,
42,0,42,0,45.01414389999991,,,,,,,,,,,,,,,,,44.99929359999987,43,yellow,green,0.0,c,45.01414389999991,45.01414389999991,45.507972499999596,c,0.5480918999994169,1.0,0.48228670000025886,0.48228670000025886,-0.05,c,1,0.48228670000025886,None,45.514981700000135,0.0008670999995956663,0.0008670999995956663,0.05654580000009446,45.58357760000035,,,,,,,,,,,01,2025-08-21_13h48.29.437,adaptiveStroop,2023.2.1,59.983360615849456,2025-08-21 13h48.52.437684 +0100,
43,0,43,0,45.604699399998935,,,,,,,,,,,,,,,,,45.58547969999927,44,green,green,1.0,c,45.604699399998935,45.604699399998935,46.05679489999966,c,0.4980918999994169,1.0,0.4462215000003198,0.4462215000003198,0.0,c,1,0.4462215000003198,None,46.06044549999933,0.0003758999991987366,0.0003758999991987366,0.044340700000248034,46.12715360000038,,,,,,,,,,,01,2025-08-21_13h48.29.437,adaptiveStroop,2023.2.1,59.983360615849456,2025-08-21 13h48.52.437684 +0100,
44,0,44,0,46.139950700000554,,,,,,,,,,,,,,,,,46.128054700000575,45,yellow,yellow,1.0,s,46.139950700000554,46.139950700000554,46.55802290000065,s,0.4980918999994169,1.0,0.4144333000003826,0.4144333000003826,0.0,s,1,0.4144333000003826,None,46.563267199999245,0.0007569000008516014,0.0007569000008516014,0.07474030000048515,46.639429400000154,,,,,,,,,,,01,2025-08-21_13h48.29.437,adaptiveStroop,2023.2.1,59.983360615849456,2025-08-21 13h48.52.437684 +0100,
45,0,45,0,46.65714339999977,,,,,,,,,,,,,,,,,46.64115089999905,46,green,blue,0.0,l,46.65714339999977,46.65714339999977,47.091063800000484,l,0.4980918999994169,1.0,0.4287696999999753,0.4287696999999753,-0.05,l,1,0.4287696999999753,None,47.0973484999995,0.0007075999983499059,0.0007075999983499059,0.06082829999832029,47.16374469999937,,,,,,,,,,,01,2025-08-21_13h48.29.437,adaptiveStroop,2023.2.1,59.983360615849456,2025-08-21 13h48.52.437684 +0100,
46,0,46,0,47.1816433999993,,,,,,,,,,,,,,,,,47.165638899999976,47,red,red,1.0,m,47.1816433999993,47.1816433999993,47.589182199999414,m,0.4480918999994169,1.0,0.40471290000095905,0.40471290000095905,0.0,m,1,0.40471290000095905,None,47.59243349999997,0.0004735000002256129,0.0004735000002256129,0.04603560000032303,47.654874399999244,,,,,,,,,,,01,2025-08-21_13h48.29.437,adaptiveStroop,2023.2.1,59.983360615849456,2025-08-21 13h48.52.437684 +0100,
47,0,47,0,47.679862400000275,,,,,,,,,,,,,,,,,47.65665540000009,48,yellow,yellow,1.0,s,47.679862400000275,47.679862400000275,48.07569770000009,s,0.4480918999994169,1.0,0.3925662999990891,0.3925662999990891,0.0,s,1,0.3925662999990891,None,48.081723899998906,0.0008479999996779952,0.0008479999996779952,0.04575300000033167,48.14496809999946,,,,,,,,,,,01,2025-08-21_13h48.29.437,adaptiveStroop,2023.2.1,59.983360615849456,2025-08-21 13h48.52.437684 +0100,
48,0,48,0,48.164921499999764,,,,,,,,,,,,,,,,,48.146821099999215,49,green,blue,0.0,l,48.164921499999764,48.164921499999764,48.57297870000002,l,0.4480918999994169,1.0,0.39434020000044256,0.39434020000044256,-0.05,l,1,0.39434020000044256,None,48.577270699999644,0.0005548999997699866,0.0005548999997699866,0.04424339999968652,48.639908499999365,,,,,,,,,,,01,2025-08-21_13h48.29.437,adaptiveStroop,2023.2.1,59.983360615849456,2025-08-21 13h48.52.437684 +0100,
49,0,49,0,48.656354400000055,,,,,,,,,,,,,,,,,48.642082700000174,50,red,green,0.0,c,48.656354400000055,48.656354400000055,49.03940639999928,nan,0.3980918999994169,0.0,,,0.05,None,0,,,49.041971900000135,0.0005486000009113923,0.0005486000009113923,0.04620450000038545,49.10305030000018,49.05476590000035,49.05476590000035,,,,,,,,,01,2025-08-21_13h48.29.437,adaptiveStroop,2023.2.1,59.983360615849456,2025-08-21 13h48.52.437684 +0100,
50,0,50,0,49.119954800000414,,,,,,,,,,,,,,,,,49.10493089999909,51,green,green,1.0,c,49.119954800000414,49.119954800000414,49.13060889999906,m,0.4480918999994169,0.0,0.005441900000732858,,0.0,m,0,0.005441900000732858,None,49.13592570000037,0.000567600000067614,0.000567600000067614,0.4315755000006902,49.56861570000001,,,,,,,,,,,01,2025-08-21_13h48.29.437,adaptiveStroop,2023.2.1,59.983360615849456,2025-08-21 13h48.52.437684 +0100,
51,0,51,0,49.58441700000003,,,,,,,,,,,,,,,,,49.57081780000044,52,blue,blue,1.0,l,49.58441700000003,49.58441700000003,50.023376799999824,nan,0.4480918999994169,0.0,,,0.0,None,0,,,50.0266687000003,0.000672399999530171,0.000672399999530171,0.044897800000399,50.08380500000021,50.038136699999086,50.038136699999086,,,,,,,,,01,2025-08-21_13h48.29.437,adaptiveStroop,2023.2.1,59.983360615849456,2025-08-21 13h48.52.437684 +0100,
52,0,52,0,50.10188179999932,,,,,,,,,,,,,,,,,50.085814899999605,53,red,yellow,0.0,s,50.10188179999932,50.10188179999932,50.52383430000009,c,0.4480918999994169,0.0,0.4128548000007868,,0.05,c,0,0.4128548000007868,None,50.52860189999956,0.0006342000015138183,0.0006342000015138183,0.04288300000007439,50.582691600000544,,,,,,,,,,,01,2025-08-21_13h48.29.437,adaptiveStroop,2023.2.1,59.983360615849456,2025-08-21 13h48.52.437684 +0100,
53,0,53,0,50.59997370000019,,,,,,,,,,,,,,,,,50.583918399999675,54,yellow,red,0.0,m,50.59997370000019,50.59997370000019,51.08933679999973,nan,0.4980918999994169,0.0,,,0.05,None,0,,,51.092086099999506,0.000771500001064851,0.000771500001064851,0.04616689999966184,51.153366799999276,51.10484700000052,51.10484700000052,,,,,,,,,01,2025-08-21_13h48.29.437,adaptiveStroop,2023.2.1,59.983360615849456,2025-08-21 13h48.52.437684 +0100,
54,0,54,0,51.1677636000004,,,,,,,,,,,,,,,,,51.15538749999905,55,blue,blue,1.0,l,51.1677636000004,51.1677636000004,51.67514660000052,l,0.5480918999994169,1.0,0.5042911000000458,0.5042911000000458,0.0,l,1,0.5042911000000458,None,51.6810547999994,0.0007370999992417637,0.0007370999992417637,0.040699099999983446,51.74320850000004,,,,,,,,,,,01,2025-08-21_13h48.29.437,adaptiveStroop,2023.2.1,59.983360615849456,2025-08-21 13h48.52.437684 +0100,
55,0,55,0,51.77214020000065,,,,,,,,,,,,,,,,,51.74503999999979,56,green,red,0.0,m,51.77214020000065,51.77214020000065,52.20615739999994,c,0.5480918999994169,0.0,0.42812659999981406,,0.05,c,0,0.42812659999981406,None,52.20893299999989,0.0003786000015679747,0.0003786000015679747,0.10993490000146267,52.325942999999825,,,,,,,,,,,01,2025-08-21_13h48.29.437,adaptiveStroop,2023.2.1,59.983360615849456,2025-08-21 13h48.52.437684 +0100,
56,0,56,0,52.343135600000096,,,,,,,,,,,,,,,,,52.327810200000386,57,red,yellow,0.0,s,52.343135600000096,52.343135600000096,52.75789149999946,s,0.5980918999994169,1.0,0.4109267000003456,0.4109267000003456,-0.05,s,1,0.4109267000003456,None,52.76561740000034,0.0007558999986940762,0.0007558999986940762,0.17768599999908474,52.94460059999983,,,,,,,,,,,01,2025-08-21_13h48.29.437,adaptiveStroop,2023.2.1,59.983360615849456,2025-08-21 13h48.52.437684 +0100,
57,0,57,0,52.96879789999912,,,,,,,,,,,,,,,,,52.94647529999929,58,yellow,yellow,1.0,s,52.96879789999912,52.96879789999912,53.342470600000524,s,0.5480918999994169,1.0,0.37002340000071854,0.37002340000071854,0.0,s,1,0.37002340000071854,None,53.34814179999921,0.0006656000005023088,0.0006656000005023088,0.16764519999924232,53.522262799999226,,,,,,,,,,,01,2025-08-21_13h48.29.437,adaptiveStroop,2023.2.1,59.983360615849456,2025-08-21 13h48.52.437684 +0100,
58,0,58,0,53.540050800000245,,,,,,,,,,,,,,,,,53.524956699999166,59,blue,red,0.0,m,53.540050800000245,53.540050800000245,53.97395800000049,m,0.5480918999994169,1.0,0.42501699999957054,0.42501699999957054,-0.05,m,1,0.42501699999957054,None,53.97990840000057,0.0007681999995838851,0.0007681999995838851,0.11244210000040766,54.09706589999951,,,,,,,,,,,01,2025-08-21_13h48.29.437,adaptiveStroop,2023.2.1,59.983360615849456,2025-08-21 13h48.52.437684 +0100,
59,0,59,0,54.10887580000053,,,,,,,,,,,,,,,,,54.09837250000055,60,red,red,1.0,m,54.10887580000053,54.10887580000053,54.52326859999994,m,0.4980918999994169,1.0,0.40758350000032806,0.40758350000032806,0.0,m,1,0.40758350000032806,None,54.53011189999961,0.001360700000077486,0.001360700000077486,0.08195940000041446,54.61371820000022,,,,,,,,,,,01,2025-08-21_13h48.29.437,adaptiveStroop,2023.2.1,59.983360615849456,2025-08-21 13h48.52.437684 +0100,
60,0,60,0,54.63239260000046,,,,,,,,,,,,,,,,,54.615502700000434,61,blue,blue,1.0,l,54.63239260000046,54.63239260000046,55.024376100000154,l,0.4980918999994169,1.0,0.3777563999992708,0.3777563999992708,0.0,l,1,0.3777563999992708,None,55.03066529999887,0.0009365000005345792,0.0009365000005345792,0.110481499999878,55.1423309999991,,,,,,,,,,,01,2025-08-21_13h48.29.437,adaptiveStroop,2023.2.1,59.983360615849456,2025-08-21 13h48.52.437684 +0100,
61,0,61,0,55.15915630000018,,,,,,,,,,,,,,,,,55.14400179999939,62,green,red,0.0,m,55.15915630000018,55.15915630000018,55.65599699999984,nan,0.4980918999994169,0.0,,,0.05,None,0,,,55.65855790000023,0.0004996000006940449,0.0004996000006940449,0.04588090000106604,55.71237909999945,55.67106789999889,55.67106789999889,,,,,,,,,01,2025-08-21_13h48.29.437,adaptiveStroop,2023.2.1,59.983360615849456,2025-08-21 13h48.52.437684 +0100,
62,0,62,0,55.72643119999884,,,,,,,,,,,,,,,,,55.71366979999948,63,yellow,blue,0.0,l,55.72643119999884,55.72643119999884,56.141019999999116,l,0.5480918999994169,1.0,0.4062811999992846,0.4062811999992846,-0.05,l,1,0.4062811999992846,None,56.14786300000014,0.0007263000006787479,0.0007263000006787479,0.13161140000011073,56.28598260000035,,,,,,,,,,,01,2025-08-21_13h48.29.437,adaptiveStroop,2023.2.1,59.983360615849456,2025-08-21 13h48.52.437684 +0100,
63,0,63,0,56.30148310000004,,,,,,,,,,,,,,,,,56.28851029999896,64,red,red,1.0,m,56.30148310000004,56.30148310000004,56.78960879999977,nan,0.4980918999994169,0.0,,,0.0,None,0,,,56.79353330000049,0.0008316999992530327,0.0008316999992530327,0.04426640000019688,56.85386329999892,56.804578799999945,56.804578799999945,,,,,,,,,01,2025-08-21_13h48.29.437,adaptiveStroop,2023.2.1,59.983360615849456,2025-08-21 13h48.52.437684 +0100,
64,0,64,0,56.87272549999943,,,,,,,,,,,,,,,,,56.85600449999947,65,yellow,yellow,1.0,s,56.87272549999943,56.87272549999943,56.89239559999987,m,0.4980918999994169,0.0,0.013086299999486073,,0.0,m,0,0.013086299999486073,None,56.89743509999971,0.0008186000013665762,0.0008186000013665762,0.47585830000025453,57.3745171999999,,,,,,,,,,,01,2025-08-21_13h48.29.437,adaptiveStroop,2023.2.1,59.983360615849456,2025-08-21 13h48.52.437684 +0100,
65,0,65,0,57.38691470000049,,,,,,,,,,,,,,,,,57.37566109999898,66,blue,green,0.0,c,57.38691470000049,57.38691470000049,57.87219460000051,nan,0.4980918999994169,0.0,,,0.05,None,0,,,57.87508440000056,0.0004895999991276767,0.0004895999991276767,0.04619490000004589,57.93332499999997,57.88768720000007,57.88768720000007,,,,,,,,,01,2025-08-21_13h48.29.437,adaptiveStroop,2023.2.1,59.983360615849456,2025-08-21 13h48.52.437684 +0100,
66,0,66,0,57.95416110000042,,,,,,,,,,,,,,,,,57.936993400000574,67,yellow,yellow,1.0,s,57.95416110000042,57.95416110000042,58.489728299999115,nan,0.5480918999994169,0.0,,,0.0,None,0,,,58.49309969999922,0.000637700000879704,0.000637700000879704,0.04495619999943301,58.552987299999586,58.50434420000056,58.50434420000056,,,,,,,,,01,2025-08-21_13h48.29.437,adaptiveStroop,2023.2.1,59.983360615849456,2025-08-21 13h48.52.437684 +0100,
67,0,67,0,58.56916889999957,,,,,,,,,,,,,,,,,58.554925999998886,68,red,blue,0.0,l,58.56916889999957,58.56916889999957,59.10602259999905,nan,0.5480918999994169,0.0,,,0.05,None,0,,,59.10968529999991,0.0008474999995087273,0.0008474999995087273,0.04464159999952244,59.172964800000045,59.12131649999901,59.12131649999901,,,,,,,,,01,2025-08-21_13h48.29.437,adaptiveStroop,2023.2.1,59.983360615849456,2025-08-21 13h48.52.437684 +0100,
68,0,68,0,59.18636759999936,,,,,,,,,,,,,,,,,59.17416310000044,69,green,green,1.0,c,59.18636759999936,59.18636759999936,59.7724005,nan,0.5980918999994169,0.0,,,0.0,None,0,,,59.77515669999957,0.0006828999994468177,0.0006828999994468177,0.046317499998622225,59.833396099998936,59.787607899999784,59.787607899999784,,,,,,,,,01,2025-08-21_13h48.29.437,adaptiveStroop,2023.2.1,59.983360615849456,2025-08-21 13h48.52.437684 +0100,
69,0,69,0,59.852369300000646,,,,,,,,,,,,,,,,,59.83518550000008,70,yellow,yellow,1.0,s,59.852369300000646,59.852369300000646,60.373948599999494,s,0.5980918999994169,1.0,0.5107210999995004,0.5107210999995004,0.0,s,1,0.5107210999995004,None,60.37993789999928,0.0008846999990055338,0.0008846999990055338,0.0776981999988493,60.45936020000045,,,,,,,,,,,01,2025-08-21_13h48.29.437,adaptiveStroop,2023.2.1,59.983360615849456,2025-08-21 13h48.52.437684 +0100,
70,0,70,0,60.47654429999966,,,,,,,,,,,,,,,,,60.46130819999962,71,blue,green,0.0,c,60.47654429999966,60.47654429999966,61.04061089999959,c,0.5980918999994169,1.0,0.5608632999992551,0.5608632999992551,-0.05,c,1,0.5608632999992551,None,61.047076599999855,0.0006905999998707557,0.0006905999998707557,0.040459600000758655,61.10445260000051,,,,,,,,,,,01,2025-08-21_13h48.29.437,adaptiveStroop,2023.2.1,59.983360615849456,2025-08-21 13h48.52.437684 +0100,
71,0,71,0,61.12084859999959,,,,,,,,,,,,,,,,,61.10619899999983,72,yellow,yellow,1.0,s,61.12084859999959,61.12084859999959,61.65521429999899,nan,0.5480918999994169,0.0,,,0.0,None,0,,,61.65676849999909,0.00037710000106017105,0.00037710000106017105,0.04738050000014482,61.722640399999364,61.670723699999144,61.670723699999144,,,,,,,,,01,2025-08-21_13h48.29.437,adaptiveStroop,2023.2.1,59.983360615849456,2025-08-21 13h48.52.437684 +0100,
72,0,72,0,61.730404399999316,,,,,,,,,,,,,,,,,61.72327839999889,73,red,red,1.0,m,61.730404399999316,61.730404399999316,62.2723864999989,nan,0.5480918999994169,0.0,,,0.0,None,0,,,62.27598089999992,0.0006941999999980908,0.0006941999999980908,0.04535389999909967,62.334836500000165,62.287240499999825,62.287240499999825,,,,,,,,,01,2025-08-21_13h48.29.437,adaptiveStroop,2023.2.1,59.983360615849456,2025-08-21 13h48.52.437684 +0100,
73,0,73,0,62.35325770000054,,,,,,,,,,,,,,,,,62.33736669999962,74,blue,green,0.0,c,62.35325770000054,62.35325770000054,62.839893599999414,c,0.5480918999994169,1.0,0.47030500000073516,0.47030500000073516,-0.05,c,1,0.47030500000073516,None,62.845802800000456,0.0009294999999838183,0.0009294999999838183,0.06891889999860723,62.91637439999977,,,,,,,,,,,01,2025-08-21_13h48.29.437,adaptiveStroop,2023.2.1,59.983360615849456,2025-08-21 13h48.52.437684 +0100,
74,0,74,0,62.9310334999991,,,,,,,,,,,,,,,,,62.91832729999987,75,red,red,1.0,m,62.9310334999991,62.9310334999991,63.39034229999925,c,0.4980918999994169,0.0,0.4543835999993462,,0.0,c,0,0.4543835999993462,None,63.39738120000038,0.000906000001123175,0.000906000001123175,0.0402923000001465,63.45363600000019,,,,,,,,,,,01,2025-08-21_13h48.29.437,adaptiveStroop,2023.2.1,59.983360615849456,2025-08-21 13h48.52.437684 +0100,
75,0,75,0,63.47087950000059,,,,,,,,,,,,,,,,,63.455524799999694,76,green,green,1.0,c,63.47087950000059,63.47087950000059,63.95573759999934,nan,0.4980918999994169,0.0,,,0.0,None,0,,,63.959300799999255,0.0008431999995082151,0.0008431999995082151,0.04489400000056776,64.02387199999976,63.97063479999997,63.97063479999997,,,,,,,,,01,2025-08-21_13h48.29.437,adaptiveStroop,2023.2.1,59.983360615849456,2025-08-21 13h48.52.437684 +0100,
76,0,76,0,64.04119320000063,,,,,,,,,,,,,,,,,64.02582470000016,77,blue,yellow,0.0,s,64.04119320000063,64.04119320000063,64.53910019999967,nan,0.4980918999994169,0.0,,,0.05,None,0,,,64.5425895999997,0.0007034999998722924,0.0007034999998722924,0.04525429999921471,64.60355859999981,64.55396669999936,64.55396669999936,,,,,,,,,01,2025-08-21_13h48.29.437,adaptiveStroop,2023.2.1,59.983360615849456,2025-08-21 13h48.52.437684 +0100,
77,0,77,0,64.62281900000016,,,,,,,,,,,,,,,,,64.60551769999984,78,yellow,green,0.0,c,64.62281900000016,64.62281900000016,65.07358709999971,c,0.5480918999994169,1.0,0.447252899999512,0.447252899999512,-0.05,c,1,0.447252899999512,None,65.07837440000003,0.0006811000002926448,0.0006811000002926448,0.0912542999994912,65.1749906999994,,,,,,,,,,,01,2025-08-21_13h48.29.437,adaptiveStroop,2023.2.1,59.983360615849456,2025-08-21 13h48.52.437684 +0100,
78,0,78,0,65.19004099999984,,,,,,,,,,,,,,,,,65.17660660000001,79,blue,blue,1.0,l,65.19004099999984,65.19004099999984,65.59009320000041,l,0.4980918999994169,1.0,0.39063960000021325,0.39063960000021325,0.0,l,1,0.39063960000021325,None,65.59573789999922,0.0007939000006444985,0.0007939000006444985,0.09705440000107046,65.69900710000002,,,,,,,,,,,01,2025-08-21_13h48.29.437,adaptiveStroop,2023.2.1,59.983360615849456,2025-08-21 13h48.52.437684 +0100,
79,0,79,0,65.71788809999998,,,,,,,,,,,,,,,,,65.70132709999962,80,green,yellow,0.0,s,65.71788809999998,65.71788809999998,66.10678100000041,s,0.4980918999994169,1.0,0.3745538999992277,0.3745538999992277,-0.05,s,1,0.3745538999992277,None,66.11296439999933,0.0008582999998907326,0.0008582999998907326,0.11361620000025141,66.2279595,,,,,,,,,,,01,2025-08-21_13h48.29.437,adaptiveStroop,2023.2.1,59.983360615849456,2025-08-21 13h48.52.437684 +0100,
80,0,80,0,66.24514640000052,,,,,,,,,,,,,,,,,66.23024859999896,81,red,red,1.0,m,66.24514640000052,66.24514640000052,66.6570711000004,m,0.4480918999994169,1.0,0.4056538000004366,0.4056538000004366,0.0,m,1,0.4056538000004366,None,66.66263309999886,0.0006137000000308035,0.0006137000000308035,0.0415515000004234,66.72371399999975,,,,,,,,,,,01,2025-08-21_13h48.29.437,adaptiveStroop,2023.2.1,59.983360615849456,2025-08-21 13h48.52.437684 +0100,
81,0,81,0,66.73809729999994,,,,,,,,,,,,,,,,,66.72572839999884,82,yellow,yellow,1.0,s,66.73809729999994,66.73809729999994,67.17253879999953,nan,0.4480918999994169,0.0,,,0.0,None,0,,,67.17589989999942,0.0006128000004537171,0.0006128000004537171,0.044894399999975576,67.23362259999885,67.18742249999923,67.18742249999923,,,,,,,,,01,2025-08-21_13h48.29.437,adaptiveStroop,2023.2.1,59.983360615849456,2025-08-21 13h48.52.437684 +0100,
82,0,82,0,67.2555513999996,,,,,,,,,,,,,,,,,67.23565409999901,83,green,red,0.0,m,67.2555513999996,67.2555513999996,67.27269940000042,s,0.4480918999994169,0.0,0.012117799999032286,,0.05,s,0,0.012117799999032286,None,67.27645279999888,0.0004600000011123484,0.0004600000011123484,0.42495640000015555,67.70848759999899,,,,,,,,,,,01,2025-08-21_13h48.29.437,adaptiveStroop,2023.2.1,59.983360615849456,2025-08-21 13h48.52.437684 +0100,
83,0,83,0,67.72014940000008,,,,,,,,,,,,,,,,,67.7095651999989,84,red,red,1.0,m,67.72014940000008,67.72014940000008,68.20497599999908,nan,0.4980918999994169,0.0,,,0.0,None,0,,,68.2078462999998,0.0007157000000006519,0.0007157000000006519,0.046254700000645244,68.27345980000064,68.22034229999917,68.22034229999917,,,,,,,,,01,2025-08-21_13h48.29.437,adaptiveStroop,2023.2.1,59.983360615849456,2025-08-21 13h48.52.437684 +0100,
84,0,84,0,68.28927029999977,,,,,,,,,,,,,,,,,68.2750388000004,85,blue,green,0.0,c,68.28927029999977,68.28927029999977,68.77238240000042,nan,0.4980918999994169,0.0,,,0.05,None,0,,,68.77775529999963,0.0007808999998815125,0.0007808999998815125,0.04283399999985704,68.83315290000064,68.78727190000063,68.78727190000063,,,,,,,,,01,2025-08-21_13h48.29.437,adaptiveStroop,2023.2.1,59.983360615849456,2025-08-21 13h48.52.437684 +0100,
85,0,85,0,68.85051340000064,,,,,,,,,,,,,,,,,68.83446849999928,86,yellow,yellow,1.0,s,68.85051340000064,68.85051340000064,69.38888919999954,nan,0.5480918999994169,0.0,,,0.0,None,0,,,69.39272059999894,0.0008154000006470596,0.0008154000006470596,0.04465320000053907,69.45291469999938,69.40390209999896,69.40390209999896,,,,,,,,,01,2025-08-21_13h48.29.437,adaptiveStroop,2023.2.1,59.983360615849456,2025-08-21 13h48.52.437684 +0100,
86,0,86,0,69.47125790000064,,,,,,,,,,,,,,,,,69.45496950000052,87,blue,red,0.0,m,69.47125790000064,69.47125790000064,69.89029579999988,l,0.5480918999994169,0.0,0.4020557000003464,,0.05,l,0,0.4020557000003464,None,69.89557419999983,0.0007953999993333127,0.0007953999993333127,0.13602800000080606,70.03641369999968,,,,,,,,,,,01,2025-08-21_13h48.29.437,adaptiveStroop,2023.2.1,59.983360615849456,2025-08-21 13h48.52.437684 +0100,
87,0,87,0,70.0594756999999,,,,,,,,,,,,,,,,,70.04005229999893,88,yellow,green,0.0,c,70.0594756999999,70.0594756999999,70.48974689999886,c,0.5980918999994169,1.0,0.41221089999999094,0.41221089999999094,-0.05,c,1,0.41221089999999094,None,70.4955446999993,0.0006487000009656185,0.0006487000009656185,0.17490680000082648,70.67576530000042,,,,,,,,,,,01,2025-08-21_13h48.29.437,adaptiveStroop,2023.2.1,59.983360615849456,2025-08-21 13h48.52.437684 +0100,
88,0,88,0,70.68957219999902,,,,,,,,,,,,,,,,,70.67767889999959,89,blue,blue,1.0,l,70.68957219999902,70.68957219999902,71.1399851999995,l,0.5480918999994169,1.0,0.43457109999872046,0.43457109999872046,0.0,l,1,0.43457109999872046,None,71.14625309999974,0.0008959999995568069,0.0008959999995568069,0.10366729999987001,71.25134020000041,,,,,,,,,,,01,2025-08-21_13h48.29.437,adaptiveStroop,2023.2.1,59.983360615849456,2025-08-21 13h48.52.437684 +0100,
89,0,89,0,71.27166810000017,,,,,,,,,,,,,,,,,71.25374190000002,90,green,red,0.0,m,71.27166810000017,71.27166810000017,71.68990940000003,m,0.5480918999994169,1.0,0.3997540999989724,0.3997540999989724,-0.05,m,1,0.3997540999989724,None,71.69585629999892,0.0011207000006834278,0.0011207000006834278,0.13901810000061232,71.83631500000047,,,,,,,,,,,01,2025-08-21_13h48.29.437,adaptiveStroop,2023.2.1,59.983360615849456,2025-08-21 13h48.52.437684 +0100,
90,0,90,0,71.85431729999982,,,,,,,,,,,,,,,,,71.83820969999942,91,blue,blue,1.0,l,71.85431729999982,71.85431729999982,72.33775260000039,nan,0.4980918999994169,0.0,,,0.0,None,0,,,72.33949649999886,0.0003161999993608333,0.0003161999993608333,0.047682099999292404,72.40298810000058,72.35352450000028,72.35352450000028,,,,,,,,,01,2025-08-21_13h48.29.437,adaptiveStroop,2023.2.1,59.983360615849456,2025-08-21 13h48.52.437684 +0100,
91,0,91,0,72.41528400000061,,,,,,,,,,,,,,,,,72.40409639999962,92,green,yellow,0.0,s,72.41528400000061,72.41528400000061,72.90651509999952,nan,0.4980918999994169,0.0,,,0.05,None,0,,,72.9098525999998,0.0006594000005861744,0.0006594000005861744,0.043714100000215694,72.97411660000034,72.92025619999913,72.92025619999913,,,,,,,,,01,2025-08-21_13h48.29.437,adaptiveStroop,2023.2.1,59.983360615849456,2025-08-21 13h48.52.437684 +0100,
92,0,92,0,72.99154249999992,,,,,,,,,,,,,,,,,72.97647399999914,93,blue,red,0.0,m,72.99154249999992,72.99154249999992,73.42153659999894,m,0.5480918999994169,1.0,0.42869400000017777,0.42869400000017777,-0.05,m,1,0.42869400000017777,None,73.42474880000009,0.00033430000075895805,0.00033430000075895805,0.10697889999937615,73.55406029999904,,,,,,,,,,,01,2025-08-21_13h48.29.437,adaptiveStroop,2023.2.1,59.983360615849456,2025-08-21 13h48.52.437684 +0100,
93,0,93,0,73.5699224,,,,,,,,,,,,,,,,,73.55488689999947,94,yellow,yellow,1.0,s,73.5699224,73.5699224,74.05459419999897,nan,0.4980918999994169,0.0,,,0.0,None,0,,,74.05684490000021,0.0005908000002818881,0.0005908000002818881,0.04650980000042182,74.12303500000053,74.06994510000004,74.06994510000004,,,,,,,,,01,2025-08-21_13h48.29.437,adaptiveStroop,2023.2.1,59.983360615849456,2025-08-21 13h48.52.437684 +0100,
94,0,94,0,74.13384140000016,,,,,,,,,,,,,,,,,74.12472069999967,95,red,blue,0.0,l,74.13384140000016,74.13384140000016,74.6216958999994,nan,0.4980918999994169,0.0,,,0.05,None,0,,,74.62693620000027,0.0008389000013266923,0.0008389000013266923,0.04313990000082413,74.6850359,74.63693690000036,74.63693690000036,,,,,,,,,01,2025-08-21_13h48.29.437,adaptiveStroop,2023.2.1,59.983360615849456,2025-08-21 13h48.52.437684 +0100,
95,0,95,0,74.70048820000011,,,,,,,,,,,,,,,,,74.68715669999983,96,yellow,green,0.0,c,74.70048820000011,74.70048820000011,75.2048020000002,c,0.5480918999994169,1.0,0.4954350999996677,0.4954350999996677,-0.05,c,1,0.4954350999996677,None,75.20846229999916,0.0004079999998793937,0.0004079999998793937,0.04616059999898425,75.27798369999982,,,,,,,,,,,01,2025-08-21_13h48.29.437,adaptiveStroop,2023.2.1,59.983360615849456,2025-08-21 13h48.52.437684 +0100,
96,0,96,0,75.29371320000064,,,,,,,,,,,,,,,,,75.27963400000044,97,green,green,1.0,c,75.29371320000064,75.29371320000064,75.77189129999897,c,0.4980918999994169,1.0,0.4628949999987526,0.4628949999987526,0.0,c,1,0.4628949999987526,None,75.77755079999952,0.0006236999997781822,0.0006236999997781822,0.042514200000368874,75.83340589999898,,,,,,,,,,,01,2025-08-21_13h48.29.437,adaptiveStroop,2023.2.1,59.983360615849456,2025-08-21 13h48.52.437684 +0100,
97,0,97,0,75.84924990000036,,,,,,,,,,,,,,,,,75.8354073999999,98,blue,blue,1.0,l,75.84924990000036,75.84924990000036,76.33721909999986,nan,0.4980918999994169,0.0,,,0.0,None,0,,,76.34012830000029,0.0007965000004332978,0.0007965000004332978,0.0463913000003231,76.40320040000006,76.35319089999939,76.35319089999939,,,,,,,,,01,2025-08-21_13h48.29.437,adaptiveStroop,2023.2.1,59.983360615849456,2025-08-21 13h48.52.437684 +0100,
98,0,98,0,76.41805329999988,,,,,,,,,,,,,,,,,76.40526649999993,99,red,yellow,0.0,s,76.41805329999988,76.41805329999988,76.90425440000035,nan,0.4980918999994169,0.0,,,0.05,None,0,,,76.90695670000059,0.000628800000413321,0.000628800000413321,0.04631929999959539,76.97402990000046,76.91972689999966,76.91972689999966,,,,,,,,,01,2025-08-21_13h48.29.437,adaptiveStroop,2023.2.1,59.983360615849456,2025-08-21 13h48.52.437684 +0100,
99,0,99,0,76.99337439999908,,,,,,,,,,,,,,,,,76.9754438,100,yellow,red,0.0,m,76.99337439999908,76.99337439999908,77.52228730000024,m,0.5480918999994169,1.0,0.5207856999986689,0.5207856999986689,-0.05,m,1,0.5207856999986689,None,77.5282731999996,0.0008930999993026489,0.0008930999993026489,0.04180339999948046,77.5829902000005,,,,,,,,,,,01,2025-08-21_13h48.29.437,adaptiveStroop,2023.2.1,59.983360615849456,2025-08-21 13h48.52.437684 +0100,
100,0,100,0,77.59524930000043,,,,,,,,,,,,,,,,,77.58452190000025,101,red,red,1.0,m,77.59524930000043,77.59524930000043,78.02257549999922,m,0.4980918999994169,1.0,0.4145575000002282,0.4145575000002282,0.0,m,1,0.4145575000002282,None,78.02669659999992,0.0005948999987595016,0.0005948999987595016,0.073677399999724,78.10679549999986,,,,,,,,,,,01,2025-08-21_13h48.29.437,adaptiveStroop,2023.2.1,59.983360615849456,2025-08-21 13h48.52.437684 +0100,
101,0,101,0,78.12802770000053,,,,,,,,,,,,,,,,,78.10864050000055,102,green,green,1.0,c,78.12802770000053,78.12802770000053,78.62116810000043,nan,0.4980918999994169,0.0,,,0.0,None,0,,,78.6244186999993,0.0007015000010142103,0.0007015000010142103,0.045603100001244457,78.68336719999934,78.63649629999964,78.63649629999964,,,,,,,,,01,2025-08-21_13h48.29.437,adaptiveStroop,2023.2.1,59.983360615849456,2025-08-21 13h48.52.437684 +0100,
102,0,102,0,78.70292139999947,,,,,,,,,,,,,,,,,78.68517179999981,103,yellow,blue,0.0,l,78.70292139999947,78.70292139999947,78.75652239999908,c,0.4980918999994169,0.0,0.04332290000093053,,0.05,c,0,0.04332290000093053,None,78.76298329999918,0.0008318000000144821,0.0008318000000144821,0.44518670000070415,79.20964400000048,,,,,,,,,,,01,2025-08-21_13h48.29.437,adaptiveStroop,2023.2.1,59.983360615849456,2025-08-21 13h48.52.437684 +0100,
103,0,103,0,79.23042010000063,,,,,,,,,,,,,,,,,79.21212439999908,104,blue,blue,1.0,l,79.23042010000063,79.23042010000063,79.67188969999916,l,0.5480918999994169,1.0,0.4312970999999379,0.4312970999999379,0.0,l,1,0.4312970999999379,None,79.68061119999948,0.0009549000005790731,0.0009549000005790731,0.10736659999929543,79.7894680999998,,,,,,,,,,,01,2025-08-21_13h48.29.437,adaptiveStroop,2023.2.1,59.983360615849456,2025-08-21 13h48.52.437684 +0100,
104,0,104,0,79.80526660000032,,,,,,,,,,,,,,,,,79.79121230000055,105,red,yellow,0.0,s,79.80526660000032,79.80526660000032,80.33837560000029,nan,0.5480918999994169,0.0,,,0.05,None,0,,,80.34203549999984,0.0008589999997639097,0.0008589999997639097,0.04447070000060194,80.4036802999999,80.35303369999929,80.35303369999929,,,,,,,,,01,2025-08-21_13h48.29.437,adaptiveStroop,2023.2.1,59.983360615849456,2025-08-21 13h48.52.437684 +0100,
105,0,105,0,80.43069149999974,,,,,,,,,,,,,,,,,80.40556610000021,106,yellow,blue,0.0,l,80.43069149999974,80.43069149999974,81.02196619999995,nan,0.5980918999994169,0.0,,,0.05,None,0,,,81.02542869999888,0.0007697000000916887,0.0007697000000916887,0.04472229999919364,81.08323070000006,81.03625800000009,81.03625800000009,,,,,,,,,01,2025-08-21_13h48.29.437,adaptiveStroop,2023.2.1,59.983360615849456,2025-08-21 13h48.52.437684 +0100,
106,0,106,0,81.09862040000007,,,,,,,,,,,,,,,,,81.08485859999928,107,red,red,1.0,m,81.09862040000007,81.09862040000007,81.58986619999996,m,0.648091899999417,1.0,0.48842340000010154,0.48842340000010154,0.0,m,1,0.48842340000010154,None,81.59574210000028,0.0007787000013195211,0.0007787000013195211,0.14916080000148213,81.7509528999999,,,,,,,,,,,01,2025-08-21_13h48.29.437,adaptiveStroop,2023.2.1,59.983360615849456,2025-08-21 13h48.52.437684 +0100,
107,0,107,0,81.77076619999934,,,,,,,,,,,,,,,,,81.75327979999929,108,blue,green,0.0,c,81.77076619999934,81.77076619999934,82.25568650000059,c,0.648091899999417,1.0,0.473989399999482,0.473989399999482,-0.05,c,1,0.473989399999482,None,82.2617126999994,0.0006892000001244014,0.0006892000001244014,0.1637006000000838,82.43112429999928,,,,,,,,,,,01,2025-08-21_13h48.29.437,adaptiveStroop,2023.2.1,59.983360615849456,2025-08-21 13h48.52.437684 +0100,
108,0,108,0,82.44725590000053,,,,,,,,,,,,,,,,,82.43284979999953,109,red,red,1.0,m,82.44725590000053,82.44725590000053,83.03831580000042,nan,0.5980918999994169,0.0,,,0.0,None,0,,,83.04184329999953,0.0006874000009702286,0.0006874000009702286,0.04460500000095635,83.10373339999933,83.0531262000004,83.0531262000004,,,,,,,,,01,2025-08-21_13h48.29.437,adaptiveStroop,2023.2.1,59.983360615849456,2025-08-21 13h48.52.437684 +0100,
109,0,109,0,83.12565499999982,,,,,,,,,,,,,,,,,83.10636949999935,110,yellow,yellow,1.0,s,83.12565499999982,83.12565499999982,83.63889000000017,s,0.5980918999994169,1.0,0.49779810000109137,0.49779810000109137,0.0,s,1,0.49779810000109137,None,83.64527760000055,0.0006276000003708759,0.0006276000003708759,0.09037870000065595,83.73740940000062,,,,,,,,,,,01,2025-08-21_13h48.29.437,adaptiveStroop,2023.2.1,59.983360615849456,2025-08-21 13h48.52.437684 +0100,
110,0,110,0,83.76153599999998,,,,,,,,,,,,,,,,,83.73920220000036,111,green,red,0.0,m,83.76153599999998,83.76153599999998,84.27249579999989,m,0.5980918999994169,1.0,0.4956849999998667,0.4956849999998667,-0.05,m,1,0.4956849999998667,None,84.27827099999922,0.0006172000012156786,0.0006172000012156786,0.09250140000040119,84.37655470000027,,,,,,,,,,,01,2025-08-21_13h48.29.437,adaptiveStroop,2023.2.1,59.983360615849456,2025-08-21 13h48.52.437684 +0100,
111,0,111,0,84.3952162000005,,,,,,,,,,,,,,,,,84.37834519999888,112,blue,yellow,0.0,s,84.3952162000005,84.3952162000005,84.93856059999962,nan,0.5480918999994169,0.0,,,0.05,None,0,,,84.94220479999967,0.000815100000181701,0.000815100000181701,0.044396400000550784,85.00440659999913,84.95271180000054,84.95271180000054,,,,,,,,,01,2025-08-21_13h48.29.437,adaptiveStroop,2023.2.1,59.983360615849456,2025-08-21 13h48.52.437684 +0100,
112,0,112,0,85.02083080000011,,,,,,,,,,,,,,,,,85.00623090000045,113,red,red,1.0,m,85.02083080000011,85.02083080000011,85.50573939999958,m,0.5980918999994169,1.0,0.4698777000012342,0.4698777000012342,0.0,m,1,0.4698777000012342,None,85.51150779999989,0.0007825000011507655,0.0007825000011507655,0.11783839999952761,85.63555389999965,,,,,,,,,,,01,2025-08-21_13h48.29.437,adaptiveStroop,2023.2.1,59.983360615849456,2025-08-21 13h48.52.437684 +0100,
113,0,113,0,85.65851870000006,,,,,,,,,,,,,,,,,85.63748099999975,114,yellow,green,0.0,c,85.65851870000006,85.65851870000006,86.08861609999985,c,0.5980918999994169,1.0,0.42150020000008226,0.42150020000008226,-0.05,c,1,0.42150020000008226,None,86.0951884999995,0.0008271000006061513,0.0008271000006061513,0.1653974000000744,86.2647352999993,,,,,,,,,,,01,2025-08-21_13h48.29.437,adaptiveStroop,2023.2.1,59.983360615849456,2025-08-21 13h48.52.437684 +0100,
114,0,114,0,86.27770749999945,,,,,,,,,,,,,,,,,86.266106699999,115,green,yellow,0.0,s,86.27770749999945,86.27770749999945,86.68861789999937,c,0.5480918999994169,0.0,0.3932719000003999,,0.05,c,0,0.3932719000003999,None,86.6939315999989,0.0007015999999566702,0.0007015999999566702,0.1451058999991801,86.84490469999946,,,,,,,,,,,01,2025-08-21_13h48.29.437,adaptiveStroop,2023.2.1,59.983360615849456,2025-08-21 13h48.52.437684 +0100,
115,0,115,0,86.86330570000064,,,,,,,,,,,,,,,,,86.84682930000054,116,blue,blue,1.0,l,86.86330570000064,86.86330570000064,87.35539339999923,l,0.5980918999994169,1.0,0.478434800001196,0.478434800001196,0.0,l,1,0.478434800001196,None,87.36154270000043,0.000780099999246886,0.000780099999246886,0.10786650000045483,87.47327269999914,,,,,,,,,,,01,2025-08-21_13h48.29.437,adaptiveStroop,2023.2.1,59.983360615849456,2025-08-21 13h48.52.437684 +0100,
116,0,116,0,87.4860437999996,,,,,,,,,,,,,,,,,87.4740471999994,117,yellow,green,0.0,c,87.4860437999996,87.4860437999996,88.07108189999963,nan,0.5980918999994169,0.0,,,0.05,None,0,,,88.07397089999904,0.000595799998336588,0.000595799998336588,0.04578129999936209,88.1330569999991,88.08612279999943,88.08612279999943,,,,,,,,,01,2025-08-21_13h48.29.437,adaptiveStroop,2023.2.1,59.983360615849456,2025-08-21 13h48.52.437684 +0100,
117,0,117,0,88.15613289999965,,,,,,,,,,,,,,,,,88.13640230000055,118,green,green,1.0,c,88.15613289999965,88.15613289999965,88.17377820000002,c,0.648091899999417,1.0,0.01319109999894863,0.01319109999894863,0.0,c,1,0.01319109999894863,None,88.17895089999911,0.0005744999998569256,0.0005744999998569256,0.624552199999016,88.80462570000054,,,,,,,,,,,01,2025-08-21_13h48.29.437,adaptiveStroop,2023.2.1,59.983360615849456,2025-08-21 13h48.52.437684 +0100,
118,0,118,0,88.81806979999965,,,,,,,,,,,,,,,,,88.8056362999996,119,yellow,yellow,1.0,s,88.81806979999965,88.81806979999965,89.38883969999915,l,0.648091899999417,0.0,0.5656683000015619,,0.0,l,0,0.5656683000015619,None,89.3953447999993,0.0007913000008556992,0.0007913000008556992,0.07312710000041989,89.47016319999966,,,,,,,,,,,01,2025-08-21_13h48.29.437,adaptiveStroop,2023.2.1,59.983360615849456,2025-08-21 13h48.52.437684 +0100,
119,0,119,0,89.4910848999989,,,,,,,,,,,,,,,,,89.47208390000014,120,blue,red,0.0,m,89.4910848999989,89.4910848999989,90.10566389999985,l,0.648091899999417,0.0,0.6009572000002663,,0.05,l,0,0.6009572000002663,None,90.11125159999938,0.0006799000002501998,0.0006799000002501998,0.04132700000081968,90.17348660000061,,,,,,,,,,,01,2025-08-21_13h48.29.437,adaptiveStroop,2023.2.1,59.983360615849456,2025-08-21 13h48.52.437684 +0100,
120,0,120,0,90.18805470000007,,,,,,,,,,,,,,,,,90.17533589999948,121,green,blue,0.0,l,90.18805470000007,90.18805470000007,90.75575299999946,l,0.698091899999417,1.0,0.5498281000000134,0.5498281000000134,-0.05,l,1,0.5498281000000134,None,90.76235280000037,0.0010103000004164642,0.0010103000004164642,0.13974419999976817,90.90389630000027,,,,,,,,,,,01,2025-08-21_13h48.29.437,adaptiveStroop,2023.2.1,59.983360615849456,2025-08-21 13h48.52.437684 +0100,
121,0,121,0,90.9196778000005,,,,,,,,,,,,,,,,,90.90575739999986,122,red,red,1.0,m,90.9196778000005,90.9196778000005,91.37117260000014,m,0.648091899999417,1.0,0.4348513000004459,0.4348513000004459,0.0,m,1,0.4348513000004459,None,91.3766126999999,0.0006534999993164092,0.0006534999993164092,0.20211170000038692,91.58481209999991,,,,,,,,,,,01,2025-08-21_13h48.29.437,adaptiveStroop,2023.2.1,59.983360615849456,2025-08-21 13h48.52.437684 +0100,
122,0,122,0,91.60542309999983,,,,,,,,,,,,,,,,,91.58819810000023,123,blue,blue,1.0,l,91.60542309999983,91.60542309999983,92.00529850000021,l,0.648091899999417,1.0,0.3955523999993602,0.3955523999993602,0.0,l,1,0.3955523999993602,None,92.01175909999984,0.0007514000008086441,0.0007514000008086441,0.2429697000006854,92.25639640000009,,,,,,,,,,,01,2025-08-21_13h48.29.437,adaptiveStroop,2023.2.1,59.983360615849456,2025-08-21 13h48.52.437684 +0100,
123,0,123,0,92.27330749999965,,,,,,,,,,,,,,,,,92.25812179999957,124,green,yellow,0.0,s,92.27330749999965,92.27330749999965,92.672039699999,s,0.648091899999417,1.0,0.38355589999991935,0.38355589999991935,-0.05,s,1,0.38355589999991935,None,92.67827190000025,0.0007660999999643536,0.0007660999999643536,0.25365290000081586,92.93869219999942,,,,,,,,,,,01,2025-08-21_13h48.29.437,adaptiveStroop,2023.2.1,59.983360615849456,2025-08-21 13h48.52.437684 +0100,
124,0,124,0,92.96456840000064,,,,,,,,,,,,,,,,,92.94071760000043,125,yellow,yellow,1.0,s,92.96456840000064,92.96456840000064,93.3556838000004,s,0.5980918999994169,1.0,0.37687389999882726,0.37687389999882726,0.0,s,1,0.37687389999882726,None,93.36249899999893,0.0007757999992463738,0.0007757999992463738,0.20906130000003031,93.57506549999925,,,,,,,,,,,01,2025-08-21_13h48.29.437,adaptiveStroop,2023.2.1,59.983360615849456,2025-08-21 13h48.52.437684 +0100,
125,0,125,0,93.58567709999988,,,,,,,,,,,,,,,,,93.57586839999931,126,blue,green,0.0,c,93.58567709999988,93.58567709999988,94.07218789999934,c,0.5980918999994169,1.0,0.48087950000081037,0.48087950000081037,-0.05,c,1,0.48087950000081037,None,94.07905869999922,0.0007999000008567236,0.0007999000008567236,0.10819110000011278,94.18913749999956,,,,,,,,,,,01,2025-08-21_13h48.29.437,adaptiveStroop,2023.2.1,59.983360615849456,2025-08-21 13h48.52.437684 +0100,
126,0,126,0,94.20828640000036,,,,,,,,,,,,,,,,,94.19086699999934,127,green,green,1.0,c,94.20828640000036,94.20828640000036,94.63894919999984,c,0.5480918999994169,1.0,0.422660199999882,0.422660199999882,0.0,c,1,0.422660199999882,None,94.6445709999989,0.0007227000005514128,0.0007227000005514128,0.11451669999951264,94.76528460000009,,,,,,,,,,,01,2025-08-21_13h48.29.437,adaptiveStroop,2023.2.1,59.983360615849456,2025-08-21 13h48.52.437684 +0100,
127,0,127,0,94.78138319999925,,,,,,,,,,,,,,,,,94.76725319999969,128,red,red,1.0,m,94.78138319999925,94.78138319999925,95.23873269999967,m,0.5480918999994169,1.0,0.4402879000008397,0.4402879000008397,0.0,m,1,0.4402879000008397,None,95.24487899999986,0.0007957000016176607,0.0007957000016176607,0.09747200000128942,95.34794770000008,,,,,,,,,,,01,2025-08-21_13h48.29.437,adaptiveStroop,2023.2.1,59.983360615849456,2025-08-21 13h48.52.437684 +0100,
128,0,128,0,95.36146430000008,,,,,,,,,,,,,,,,,95.3491142999992,129,green,yellow,0.0,s,95.36146430000008,95.36146430000008,95.8399229000006,c,0.5480918999994169,0.0,0.47530449999976554,,0.05,c,0,0.47530449999976554,None,95.84548499999983,0.0008127999990392709,0.0008127999990392709,0.06282519999876968,95.91324039999927,,,,,,,,,,,01,2025-08-21_13h48.29.437,adaptiveStroop,2023.2.1,59.983360615849456,2025-08-21 13h48.52.437684 +0100,
129,0,129,0,95.93080460000056,,,,,,,,,,,,,,,,,95.9150408000005,130,blue,red,0.0,m,95.93080460000056,95.93080460000056,96.48901759999899,m,0.5980918999994169,1.0,0.5448811999995087,0.5448811999995087,-0.05,m,1,0.5448811999995087,None,96.49510849999933,0.000744999999369611,0.000744999999369611,0.0435165999988385,96.55342539999947,,,,,,,,,,,01,2025-08-21_13h48.29.437,adaptiveStroop,2023.2.1,59.983360615849456,2025-08-21 13h48.52.437684 +0100,
130,0,130,0,96.57205950000025,,,,,,,,,,,,,,,,,96.55515960000048,131,green,green,1.0,c,96.57205950000025,96.57205950000025,97.12014970000018,nan,0.5480918999994169,0.0,,,0.0,None,0,,,97.12250610000046,0.0003936000011890428,0.0003936000011890428,0.046581200000218814,97.18355299999894,97.13556640000024,97.13556640000024,,,,,,,,,01,2025-08-21_13h48.29.437,adaptiveStroop,2023.2.1,59.983360615849456,2025-08-21 13h48.52.437684 +0100,
131,0,131,0,97.20221859999947,,,,,,,,,,,,,,,,,97.18593449999935,132,blue,blue,1.0,l,97.20221859999947,97.20221859999947,97.67199729999993,l,0.5480918999994169,1.0,0.4609405000010156,0.4609405000010156,0.0,l,1,0.4609405000010156,None,97.6779305,0.0007662999996682629,0.0007662999996682629,0.07699669999965408,97.760628,,,,,,,,,,,01,2025-08-21_13h48.29.437,adaptiveStroop,2023.2.1,59.983360615849456,2025-08-21 13h48.52.437684 +0100,
132,0,132,0,97.7758644000005,,,,,,,,,,,,,,,,,97.76239030000033,133,red,yellow,0.0,s,97.7758644000005,97.7758644000005,98.25503919999937,s,0.5480918999994169,1.0,0.4767306000012468,0.4767306000012468,-0.05,s,1,0.4767306000012468,None,98.26093129999936,0.0008531999992555939,0.0008531999992555939,0.06069789999855857,98.33690240000033,,,,,,,,,,,01,2025-08-21_13h48.29.437,adaptiveStroop,2023.2.1,59.983360615849456,2025-08-21 13h48.52.437684 +0100,
133,0,133,0,98.35159199999907,,,,,,,,,,,,,,,,,98.33835550000003,134,yellow,green,0.0,c,98.35159199999907,98.35159199999907,98.83724729999994,nan,0.4980918999994169,0.0,,,0.05,None,0,,,98.84084749999965,0.0006438000000343891,0.0006438000000343891,0.04469769999923301,98.90326950000053,98.85228370000004,98.85228370000004,,,,,,,,,01,2025-08-21_13h48.29.437,adaptiveStroop,2023.2.1,59.983360615849456,2025-08-21 13h48.52.437684 +0100,
134,0,134,0,98.92150749999928,,,,,,,,,,,,,,,,,98.9052370999998,135,blue,blue,1.0,l,98.92150749999928,98.92150749999928,99.45367339999939,nan,0.5480918999994169,0.0,,,0.0,None,0,,,99.45715589999963,0.0007463999991159653,0.0007463999991159653,0.04517659999874013,99.52351090000047,99.46882209999967,99.46882209999967,,,,,,,,,01,2025-08-21_13h48.29.437,adaptiveStroop,2023.2.1,59.983360615849456,2025-08-21 13h48.52.437684 +0100,
135,0,135,0,99.54186819999995,,,,,,,,,,,,,,,,,99.5258888999997,136,red,green,0.0,c,99.54186819999995,99.54186819999995,100.0216220000002,c,0.5480918999994169,1.0,0.4718035999994754,0.4718035999994754,-0.05,c,1,0.4718035999994754,None,100.02729159999944,0.0007313999994948972,0.0007313999994948972,0.06599249999999302,100.09987080000064,,,,,,,,,,,01,2025-08-21_13h48.29.437,adaptiveStroop,2023.2.1,59.983360615849456,2025-08-21 13h48.52.437684 +0100,
136,0,136,0,100.11773340000036,,,,,,,,,,,,,,,,,100.10180649999893,137,blue,red,0.0,m,100.11773340000036,100.11773340000036,100.60400479999953,nan,0.4980918999994169,0.0,,,0.05,None,0,,,100.60727009999937,0.0007755000006000046,0.0007755000006000046,0.04504290000113542,100.67367009999907,100.61879649999901,100.61879649999901,,,,,,,,,01,2025-08-21_13h48.29.437,adaptiveStroop,2023.2.1,59.983360615849456,2025-08-21 13h48.52.437684 +0100,
137,0,137,0,100.68905839999934,,,,,,,,,,,,,,,,,100.67540069999995,138,red,red,1.0,m,100.68905839999934,100.68905839999934,101.23726989999886,nan,0.5480918999994169,0.0,,,0.0,None,0,,,101.24095949999901,0.0007787999984429916,0.0007787999984429916,0.04467109999859531,101.3046505000002,101.25223910000022,101.25223910000022,,,,,,,,,01,2025-08-21_13h48.29.437,adaptiveStroop,2023.2.1,59.983360615849456,2025-08-21 13h48.52.437684 +0100,
138,0,138,0,101.32794379999905,,,,,,,,,,,,,,,,,101.30671129999973,139,yellow,green,0.0,c,101.32794379999905,101.32794379999905,101.45453799999996,m,0.5480918999994169,0.0,0.12191379999967467,,0.05,m,0,0.12191379999967467,None,101.45945849999953,0.0007456999992427882,0.0007456999992427882,0.41508109999995213,101.87882600000012,,,,,,,,,,,01,2025-08-21_13h48.29.437,adaptiveStroop,2023.2.1,59.983360615849456,2025-08-21 13h48.52.437684 +0100,
139,0,139,0,101.89076079999904,,,,,,,,,,,,,,,,,101.88021959999969,140,green,red,0.0,m,101.89076079999904,101.89076079999904,102.38759629999913,m,0.5980918999994169,1.0,0.48270390000107,0.48270390000107,-0.05,m,1,0.48270390000107,None,102.3916921,0.00041509999937261455,0.00041509999937261455,0.10579150000012305,102.50416450000012,,,,,,,,,,,01,2025-08-21_13h48.29.437,adaptiveStroop,2023.2.1,59.983360615849456,2025-08-21 13h48.52.437684 +0100,
140,0,140,0,102.52258319999964,,,,,,,,,,,,,,,,,102.50624570000036,141,blue,blue,1.0,l,102.52258319999964,102.52258319999964,102.98825290000059,l,0.5480918999994169,1.0,0.44904270000006363,0.44904270000006363,0.0,l,1,0.44904270000006363,None,102.99447320000036,0.001039499999023974,0.001039499999023974,0.08907529999851249,103.08489410000038,,,,,,,,,,,01,2025-08-21_13h48.29.437,adaptiveStroop,2023.2.1,59.983360615849456,2025-08-21 13h48.52.437684 +0100,
141,0,141,0,103.10473920000004,,,,,,,,,,,,,,,,,103.08670109999912,142,yellow,yellow,1.0,s,103.10473920000004,103.10473920000004,103.53828579999936,c,0.5480918999994169,0.0,0.421216299999287,,0.0,c,0,0.421216299999287,None,103.54517999999916,0.0006327999999484746,0.0006327999999484746,0.11636519999956363,103.66296130000046,,,,,,,,,,,01,2025-08-21_13h48.29.437,adaptiveStroop,2023.2.1,59.983360615849456,2025-08-21 13h48.52.437684 +0100,
142,0,142,0,103.68048649999946,,,,,,,,,,,,,,,,,103.66493590000027,143,green,blue,0.0,l,103.68048649999946,103.68048649999946,104.15591239999958,m,0.5480918999994169,0.0,0.47079929999927117,,0.05,m,0,0.47079929999927117,None,104.16118129999995,0.0006911999989824835,0.0006911999989824835,0.06678920000013022,104.2334250999993,,,,,,,,,,,01,2025-08-21_13h48.29.437,adaptiveStroop,2023.2.1,59.983360615849456,2025-08-21 13h48.52.437684 +0100,
143,0,143,0,104.24859149999975,,,,,,,,,,,,,,,,,104.2351495999992,144,red,green,0.0,c,104.24859149999975,104.24859149999975,104.82079840000006,c,0.5980918999994169,1.0,0.5557482000003802,0.5557482000003802,-0.05,c,1,0.5557482000003802,None,104.82525619999979,0.0007280999998329207,0.0007280999998329207,0.04343389999849023,104.88317090000055,,,,,,,,,,,01,2025-08-21_13h48.29.437,adaptiveStroop,2023.2.1,59.983360615849456,2025-08-21 13h48.52.437684 +0100,
144,0,144,0,104.90410209999936,,,,,,,,,,,,,,,,,104.88562079999974,145,green,green,1.0,c,104.90410209999936,104.90410209999936,105.27174079999895,c,0.5480918999994169,1.0,0.36516669999946316,0.36516669999946316,0.0,c,1,0.36516669999946316,None,105.27839859999949,0.0007329000000027008,0.0007329000000027008,0.17310960000031628,105.4525221999993,,,,,,,,,,,01,2025-08-21_13h48.29.437,adaptiveStroop,2023.2.1,59.983360615849456,2025-08-21 13h48.52.437684 +0100,
145,0,145,0,105.46720590000041,,,,,,,,,,,,,,,,,105.45363899999938,146,yellow,blue,0.0,l,105.46720590000041,105.46720590000041,105.92134179999994,l,0.5480918999994169,1.0,0.43765090000124474,0.43765090000124474,-0.05,l,1,0.43765090000124474,None,105.92723409999962,0.0007278000011865515,0.0007278000011865515,0.10008970000126283,106.0333642000005,,,,,,,,,,,01,2025-08-21_13h48.29.437,adaptiveStroop,2023.2.1,59.983360615849456,2025-08-21 13h48.52.437684 +0100,
146,0,146,0,106.05026499999985,,,,,,,,,,,,,,,,,106.0358572999994,147,green,red,0.0,m,106.05026499999985,106.05026499999985,106.42145259999961,m,0.4980918999994169,1.0,0.35714030000053754,0.35714030000053754,-0.05,m,1,0.35714030000053754,None,106.42700669999977,0.0006507999987661606,0.0006507999987661606,0.13137920000008307,106.56406369999968,,,,,,,,,,,01,2025-08-21_13h48.29.437,adaptiveStroop,2023.2.1,59.983360615849456,2025-08-21 13h48.52.437684 +0100,
147,0,147,0,106.5880632999997,,,,,,,,,,,,,,,,,106.56584639999892,148,yellow,yellow,1.0,s,106.5880632999997,106.5880632999997,107.02025820000017,nan,0.4480918999994169,0.0,,,0.0,None,0,,,107.02327630000036,0.0005887999996048165,0.0005887999996048165,0.045497499999328284,107.08354689999942,107.0350784000002,107.0350784000002,,,,,,,,,01,2025-08-21_13h48.29.437,adaptiveStroop,2023.2.1,59.983360615849456,2025-08-21 13h48.52.437684 +0100,
148,0,148,0,107.10703739999917,,,,,,,,,,,,,,,,,107.08578110000053,149,green,green,1.0,c,107.10703739999917,107.10703739999917,107.55366010000034,nan,0.4480918999994169,0.0,,,0.0,None,0,,,107.55734019999909,0.0010168999997404171,0.0010168999997404171,0.04478179999932763,107.62366400000064,107.568274199999,107.568274199999,,,,,,,,,01,2025-08-21_13h48.29.437,adaptiveStroop,2023.2.1,59.983360615849456,2025-08-21 13h48.52.437684 +0100,
149,0,149,0,107.64975099999901,,,,,,,,,,,,,,,,,107.62561809999897,150,yellow,red,0.0,m,107.64975099999901,107.64975099999901,108.0866117000005,nan,0.4480918999994169,0.0,,,0.05,None,0,,,108.08995700000014,0.000791499998740619,0.000791499998740619,0.045175699999163044,108.1540814,108.10181569999986,108.10181569999986,,,,,,,,,01,2025-08-21_13h48.29.437,adaptiveStroop,2023.2.1,59.983360615849456,2025-08-21 13h48.52.437684 +0100,
150,0,150,0,108.1722950000003,,,,,,,,,,,,,,,,,108.15593020000051,151,blue,blue,1.0,l,108.1722950000003,108.1722950000003,108.27073779999955,l,0.4980918999994169,1.0,0.09305069999936677,0.09305069999936677,0.0,l,1,0.09305069999936677,None,108.27835699999923,0.0007005999996181345,0.0007005999996181345,0.39392689999840513,108.67741240000032,,,,,,,,,,,01,2025-08-21_13h48.29.437,adaptiveStroop,2023.2.1,59.983360615849456,2025-08-21 13h48.52.437684 +0100,
151,0,151,0,108.69226139999955,,,,,,,,,,,,,,,,,108.67908109999917,152,yellow,yellow,1.0,s,108.69226139999955,108.69226139999955,109.10447690000001,s,0.4980918999994169,1.0,0.3978287999998429,0.3978287999998429,0.0,s,1,0.3978287999998429,None,109.10992579999947,0.0006319000003713882,0.0006319000003713882,0.08904529999927036,109.20461310000064,,,,,,,,,,,01,2025-08-21_13h48.29.437,adaptiveStroop,2023.2.1,59.983360615849456,2025-08-21 13h48.52.437684 +0100,
152,0,152,0,109.22084279999945,,,,,,,,,,,,,,,,,109.20597389999966,153,blue,red,0.0,m,109.22084279999945,109.22084279999945,109.70371859999977,nan,0.4980918999994169,0.0,,,0.05,None,0,,,109.70702720000008,0.0006241999999474501,0.0006241999999474501,0.0446111999990535,109.7634194000002,109.71817240000019,109.71817240000019,,,,,,,,,01,2025-08-21_13h48.29.437,adaptiveStroop,2023.2.1,59.983360615849456,2025-08-21 13h48.52.437684 +0100,
153,0,153,0,109.780300299999,,,,,,,,,,,,,,,,,109.76519819999885,154,green,green,1.0,c,109.780300299999,109.780300299999,110.15372100000059,c,0.5480918999994169,1.0,0.35735399999975925,0.35735399999975925,0.0,c,1,0.35735399999975925,None,110.15854699999909,0.0006018000003678026,0.0006018000003678026,0.18067379999956756,110.34539450000011,,,,,,,,,,,01,2025-08-21_13h48.29.437,adaptiveStroop,2023.2.1,59.983360615849456,2025-08-21 13h48.52.437684 +0100,
154,0,154,0,110.36186259999886,,,,,,,,,,,,,,,,,110.3472096000005,155,blue,red,0.0,m,110.36186259999886,110.36186259999886,110.87112929999967,m,0.5480918999994169,1.0,0.5019505000000208,0.5019505000000208,-0.05,m,1,0.5019505000000208,None,110.880674,0.0008522000007360475,0.0008522000007360475,0.038352300000042305,110.9341289999993,,,,,,,,,,,01,2025-08-21_13h48.29.437,adaptiveStroop,2023.2.1,59.983360615849456,2025-08-21 13h48.52.437684 +0100,
155,0,155,0,110.9504735999999,,,,,,,,,,,,,,,,,110.93606379999983,156,red,red,1.0,m,110.9504735999999,110.9504735999999,111.43675629999962,nan,0.4980918999994169,0.0,,,0.0,None,0,,,111.44005759999891,0.0006329000007099239,0.0006329000007099239,0.044846100001450395,111.50346220000029,111.45167740000034,111.45167740000034,,,,,,,,,01,2025-08-21_13h48.29.437,adaptiveStroop,2023.2.1,59.983360615849456,2025-08-21 13h48.52.437684 +0100,
156,0,156,0,111.52561810000043,,,,,,,,,,,,,,,,,111.50523040000007,157,green,blue,0.0,l,111.52561810000043,111.52561810000043,111.92125060000035,l,0.4980918999994169,1.0,0.3900333999990835,0.3900333999990835,-0.05,l,1,0.3900333999990835,None,111.92766269999993,0.0007936000001791399,0.0007936000001791399,0.09768540000004577,112.02688239999952,,,,,,,,,,,01,2025-08-21_13h48.29.437,adaptiveStroop,2023.2.1,59.983360615849456,2025-08-21 13h48.52.437684 +0100,
157,0,157,0,112.04600919999939,,,,,,,,,,,,,,,,,112.02876859999924,158,red,red,1.0,m,112.04600919999939,112.04600919999939,112.47113150000041,m,0.4480918999994169,1.0,0.4227999999984604,0.4227999999984604,0.0,m,1,0.4227999999984604,None,112.47570809999888,0.0007846000007702969,0.0007846000007702969,0.04297769999902812,112.53394440000011,,,,,,,,,,,01,2025-08-21_13h48.29.437,adaptiveStroop,2023.2.1,59.983360615849456,2025-08-21 13h48.52.437684 +0100,
158,0,158,0,112.55220819999886,,,,,,,,,,,,,,,,,112.53627830000005,159,blue,blue,1.0,l,112.55220819999886,112.55220819999886,112.9864533,nan,0.4480918999994169,0.0,,,0.0,None,0,,,112.98978580000039,0.0007035999988147523,0.0007035999988147523,0.04508739999982936,113.05348930000036,113.001514399999,113.001514399999,,,,,,,,,01,2025-08-21_13h48.29.437,adaptiveStroop,2023.2.1,59.983360615849456,2025-08-21 13h48.52.437684 +0100,
159,0,159,0,113.07385760000034,,,,,,,,,,,,,,,,,113.05527489999986,160,yellow,red,0.0,m,113.07385760000034,113.07385760000034,113.52007849999973,nan,0.4480918999994169,0.0,,,0.05,None,0,,,113.5238831000006,0.0013000000017200364,0.0013000000017200364,0.044166000001496286,113.58364579999943,113.53492399999959,113.53492399999959,,,,,,,,,01,2025-08-21_13h48.29.437,adaptiveStroop,2023.2.1,59.983360615849456,2025-08-21 13h48.52.437684 +0100,
160,0,160,0,113.60313359999964,,,,,,,,,,,,,,,,,113.5863188000003,161,red,yellow,0.0,s,113.60313359999964,113.60313359999964,114.0867044000006,nan,0.4980918999994169,0.0,,,0.05,None,0,,,114.09030499999972,0.0008556000011594733,0.0008556000011594733,0.04453319999993255,114.15522989999954,114.10143319999952,114.10143319999952,,,,,,,,,01,2025-08-21_13h48.29.437,adaptiveStroop,2023.2.1,59.983360615849456,2025-08-21 13h48.52.437684 +0100,
161,0,161,0,114.17866349999895,,,,,,,,,,,,,,,,,114.15710000000036,162,green,green,1.0,c,114.17866349999895,114.17866349999895,114.57062880000012,c,0.5480918999994169,1.0,0.37568650000139314,0.37568650000139314,0.0,c,1,0.37568650000139314,None,114.57788579999942,0.000720500000170432,0.000720500000170432,0.1626317000009294,114.7419976000001,,,,,,,,,,,01,2025-08-21_13h48.29.437,adaptiveStroop,2023.2.1,59.983360615849456,2025-08-21 13h48.52.437684 +0100,
162,0,162,0,114.7581754999992,,,,,,,,,,,,,,,,,114.74383569999918,163,red,red,1.0,m,114.7581754999992,114.7581754999992,115.2034724999994,c,0.5480918999994169,0.0,0.4284378000011202,,0.0,c,0,0.4284378000011202,None,115.20858469999985,0.0006609000010939781,0.0006609000010939781,0.11105610000049637,115.32546469999943,,,,,,,,,,,01,2025-08-21_13h48.29.437,adaptiveStroop,2023.2.1,59.983360615849456,2025-08-21 13h48.52.437684 +0100,
163,0,163,0,115.34653299999991,,,,,,,,,,,,,,,,,115.32728289999977,164,yellow,blue,0.0,l,115.34653299999991,115.34653299999991,115.8861197999995,nan,0.5480918999994169,0.0,,,0.05,None,0,,,115.88996459999908,0.0006047999995644204,0.0006047999995644204,0.04468470000028901,115.95398380000006,115.90137370000048,115.90137370000048,,,,,,,,,01,2025-08-21_13h48.29.437,adaptiveStroop,2023.2.1,59.983360615849456,2025-08-21 13h48.52.437684 +0100,
164,0,164,0,115.97111980000045,,,,,,,,,,,,,,,,,115.95579369999905,165,blue,blue,1.0,l,115.97111980000045,115.97111980000045,116.56969670000035,nan,0.5980918999994169,0.0,,,0.0,None,0,,,116.57358840000052,0.0007851000009395648,0.0007851000009395648,0.044415899999876274,116.63332330000048,116.58464249999997,116.58464249999997,,,,,,,,,01,2025-08-21_13h48.29.437,adaptiveStroop,2023.2.1,59.983360615849456,2025-08-21 13h48.52.437684 +0100,
165,0,165,0,116.65338909999991,,,,,,,,,,,,,,,,,116.63544209999964,166,green,green,1.0,c,116.65338909999991,116.65338909999991,117.05328279999958,c,0.5980918999994169,1.0,0.38489040000058594,0.38489040000058594,0.0,c,1,0.38489040000058594,None,117.05828309999924,0.0005757999988418305,0.0005757999988418305,0.2030464999988908,117.26643460000014,,,,,,,,,,,01,2025-08-21_13h48.29.437,adaptiveStroop,2023.2.1,59.983360615849456,2025-08-21 13h48.52.437684 +0100,
166,0,166,0,117.28349159999925,,,,,,,,,,,,,,,,,117.26798310000049,167,yellow,blue,0.0,l,117.28349159999925,117.28349159999925,117.67066700000032,m,0.5980918999994169,0.0,0.3775434999988647,,0.05,m,0,0.3775434999988647,None,117.67534469999919,0.0006826999997429084,0.0006826999997429084,0.2117353000012372,117.89237390000017,,,,,,,,,,,01,2025-08-21_13h48.29.437,adaptiveStroop,2023.2.1,59.983360615849456,2025-08-21 13h48.52.437684 +0100,
167,0,167,0,117.90680099999918,,,,,,,,,,,,,,,,,117.89383559999987,168,red,red,1.0,m,117.90680099999918,117.90680099999918,118.35424330000023,m,0.648091899999417,1.0,0.43086550000043644,0.43086550000043644,0.0,m,1,0.43086550000043644,None,118.36024480000015,0.0007159999986470211,0.0007159999986470211,0.20668499999919732,118.57180589999916,,,,,,,,,,,01,2025-08-21_13h48.29.437,adaptiveStroop,2023.2.1,59.983360615849456,2025-08-21 13h48.52.437684 +0100,
168,0,168,0,118.58442560000003,,,,,,,,,,,,,,,,,118.57328179999968,169,yellow,yellow,1.0,s,118.58442560000003,118.58442560000003,118.96953600000052,s,0.648091899999417,1.0,0.37376750000112224,0.37376750000112224,0.0,s,1,0.37376750000112224,None,118.97202169999946,0.00033959999927901663,0.00033959999927901663,0.26241920000029495,119.25248499999907,,,,,,,,,,,01,2025-08-21_13h48.29.437,adaptiveStroop,2023.2.1,59.983360615849456,2025-08-21 13h48.52.437684 +0100,
169,0,169,0,119.26771960000042,,,,,,,,,,,,,,,,,119.25360039999941,170,green,red,0.0,m,119.26771960000042,119.26771960000042,119.7705905999992,m,0.648091899999417,1.0,0.4989417999986472,0.4989417999986472,-0.05,m,1,0.4989417999986472,None,119.77600419999908,0.0008584999995946418,0.0008584999995946418,0.1388515999988158,119.92039250000016,,,,,,,,,,,01,2025-08-21_13h48.29.437,adaptiveStroop,2023.2.1,59.983360615849456,2025-08-21 13h48.52.437684 +0100,
170,0,170,0,119.93358780000017,,,,,,,,,,,,,,,,,119.92214199999944,171,red,red,1.0,m,119.93358780000017,119.93358780000017,120.45305310000003,m,0.5980918999994169,1.0,0.5100332000001799,0.5100332000001799,0.0,m,1,0.5100332000001799,None,120.4589089000001,0.0007770000011078082,0.0007770000011078082,0.07932179999988875,120.53986359999908,,,,,,,,,,,01,2025-08-21_13h48.29.437,adaptiveStroop,2023.2.1,59.983360615849456,2025-08-21 13h48.52.437684 +0100,
171,0,171,0,120.56655949999913,,,,,,,,,,,,,,,,,120.54227549999996,172,yellow,green,0.0,c,120.56655949999913,120.56655949999913,121.02046630000041,c,0.5980918999994169,1.0,0.45144690000051924,0.45144690000051924,-0.05,c,1,0.45144690000051924,None,121.02550530000008,0.0006935000001249136,0.0006935000001249136,0.1347446999989188,121.16525030000048,,,,,,,,,,,01,2025-08-21_13h48.29.437,adaptiveStroop,2023.2.1,59.983360615849456,2025-08-21 13h48.52.437684 +0100,
172,0,172,0,121.1754063999997,,,,,,,,,,,,,,,,,121.16676259999986,173,red,red,1.0,m,121.1754063999997,121.1754063999997,121.71995980000065,nan,0.5480918999994169,0.0,,,0.0,None,0,,,121.72344429999976,0.0006186000009620329,0.0006186000009620329,0.04409500000110711,121.78395139999884,121.73428760000024,121.73428760000024,,,,,,,,,01,2025-08-21_13h48.29.437,adaptiveStroop,2023.2.1,59.983360615849456,2025-08-21 13h48.52.437684 +0100,
173,0,173,0,121.80279999999948,,,,,,,,,,,,,,,,,121.78596350000043,174,green,yellow,0.0,s,121.80279999999948,121.80279999999948,122.27002209999955,s,0.5480918999994169,1.0,0.45312449999983073,0.45312449999983073,-0.05,s,1,0.45312449999983073,None,122.27641790000052,0.0009850999995251186,0.0009850999995251186,0.08541009999862581,122.36331570000038,,,,,,,,,,,01,2025-08-21_13h48.29.437,adaptiveStroop,2023.2.1,59.983360615849456,2025-08-21 13h48.52.437684 +0100,
174,0,174,0,122.38335489999918,,,,,,,,,,,,,,,,,122.3650787000006,175,blue,blue,1.0,l,122.38335489999918,122.38335489999918,122.82001949999903,l,0.4980918999994169,1.0,0.43145170000025246,0.43145170000025246,0.0,l,1,0.43145170000025246,None,122.8270322999997,0.0008713000006537186,0.0008713000006537186,0.05631800000082876,122.89311839999937,,,,,,,,,,,01,2025-08-21_13h48.29.437,adaptiveStroop,2023.2.1,59.983360615849456,2025-08-21 13h48.52.437684 +0100,
175,0,175,0,122.90918149999925,,,,,,,,,,,,,,,,,122.8947477999991,176,yellow,red,0.0,m,122.90918149999925,122.90918149999925,123.40286819999892,nan,0.4980918999994169,0.0,,,0.05,None,0,,,123.406375999999,0.0006754999994882382,0.0006754999994882382,0.04460590000053344,123.46386940000048,123.41757309999957,123.41757309999957,,,,,,,,,01,2025-08-21_13h48.29.437,adaptiveStroop,2023.2.1,59.983360615849456,2025-08-21 13h48.52.437684 +0100,
176,0,176,0,123.48049290000017,,,,,,,,,,,,,,,,,123.46565220000048,177,red,blue,0.0,l,123.48049290000017,123.48049290000017,124.01878720000059,nan,0.5480918999994169,0.0,,,0.05,None,0,,,124.0210418000006,0.0005054000012023607,0.0005054000012023607,0.04657419999966805,124.08320239999921,124.03396199999952,124.03396199999952,,,,,,,,,01,2025-08-21_13h48.29.437,adaptiveStroop,2023.2.1,59.983360615849456,2025-08-21 13h48.52.437684 +0100,
177,0,177,0,124.0968085000004,,,,,,,,,,,,,,,,,124.08489980000013,178,blue,blue,1.0,l,124.0968085000004,124.0968085000004,124.58679669999947,l,0.5980918999994169,1.0,0.4872785000006843,0.4872785000006843,0.0,l,1,0.4872785000006843,None,124.59187600000041,0.000769899999795598,0.000769899999795598,0.09933020000062243,124.69556659999944,,,,,,,,,,,01,2025-08-21_13h48.29.437,adaptiveStroop,2023.2.1,59.983360615849456,2025-08-21 13h48.52.437684 +0100,
178,0,178,0,124.7056649999995,,,,,,,,,,,,,,,,,124.69682429999921,179,red,red,1.0,m,124.7056649999995,124.7056649999995,125.23614769999949,m,0.5980918999994169,1.0,0.5265397000002849,0.5265397000002849,0.0,m,1,0.5265397000002849,None,125.24306839999917,0.0008144000003085239,0.0008144000003085239,0.06205679999948188,125.3136228000003,,,,,,,,,,,01,2025-08-21_13h48.29.437,adaptiveStroop,2023.2.1,59.983360615849456,2025-08-21 13h48.52.437684 +0100,
179,0,179,0,125.33418650000021,,,,,,,,,,,,,,,,,125.31559689999995,180,yellow,green,0.0,c,125.33418650000021,125.33418650000021,125.87043059999996,c,0.5980918999994169,1.0,0.5213146000005509,0.5213146000005509,-0.05,c,1,0.5213146000005509,None,125.87622879999981,0.0006417000004148576,0.0006417000004148576,0.06606189999911294,125.94838890000028,,,,,,,,,,,01,2025-08-21_13h48.29.437,adaptiveStroop,2023.2.1,59.983360615849456,2025-08-21 13h48.52.437684 +0100,
180,0,180,0,125.97008110000024,,,,,,,,,,,,,,,,,125.95071239999925,181,green,green,1.0,c,125.97008110000024,125.97008110000024,126.50286009999945,nan,0.5480918999994169,0.0,,,0.0,None,0,,,126.50651809999908,0.0007473000005120412,0.0007473000005120412,0.044580400000995724,126.56346660000054,126.51751150000018,126.51751150000018,,,,,,,,,01,2025-08-21_13h48.29.437,adaptiveStroop,2023.2.1,59.983360615849456,2025-08-21 13h48.52.437684 +0100,
181,0,181,0,126.58490019999954,,,,,,,,,,,,,,,,,126.56545759999972,182,yellow,yellow,1.0,s,126.58490019999954,126.58490019999954,127.07018939999944,s,0.5480918999994169,1.0,0.47127830000135873,0.47127830000135873,0.0,s,1,0.47127830000135873,None,127.07629689999885,0.0007282000005943701,0.0007282000005943701,0.0674221999997826,127.14516879999974,,,,,,,,,,,01,2025-08-21_13h48.29.437,adaptiveStroop,2023.2.1,59.983360615849456,2025-08-21 13h48.52.437684 +0100,
182,0,182,0,127.16382049999993,,,,,,,,,,,,,,,,,127.14705099999992,183,green,blue,0.0,l,127.16382049999993,127.16382049999993,127.70252149999942,nan,0.5480918999994169,0.0,,,0.05,None,0,,,127.70620269999927,0.0008744999995542457,0.0008744999995542457,0.04452390000005835,127.7633793999994,127.71723199999906,127.71723199999906,,,,,,,,,01,2025-08-21_13h48.29.437,adaptiveStroop,2023.2.1,59.983360615849456,2025-08-21 13h48.52.437684 +0100,
183,0,183,0,127.77724719999969,,,,,,,,,,,,,,,,,127.76508119999926,184,red,red,1.0,m,127.77724719999969,127.77724719999969,127.8200883999998,l,0.5980918999994169,0.0,0.027650799998809816,,0.0,l,0,0.027650799998809816,None,127.82610869999917,0.0008206999991671182,0.0008206999991671182,0.560232999998334,128.39218699999947,,,,,,,,,,,01,2025-08-21_13h48.29.437,adaptiveStroop,2023.2.1,59.983360615849456,2025-08-21 13h48.52.437684 +0100,
184,0,184,0,128.4117929999993,,,,,,,,,,,,,,,,,128.39392719999887,185,yellow,yellow,1.0,s,128.4117929999993,128.4117929999993,129.00209340000038,nan,0.5980918999994169,0.0,,,0.0,None,0,,,129.00477150000006,0.00046520000068994705,0.00046520000068994705,0.04583690000072238,129.06338610000057,129.01709560000018,129.01709560000018,,,,,,,,,01,2025-08-21_13h48.29.437,adaptiveStroop,2023.2.1,59.983360615849456,2025-08-21 13h48.52.437684 +0100,
185,0,185,0,129.07377180000003,,,,,,,,,,,,,,,,,129.06465209999988,186,red,green,0.0,c,129.07377180000003,129.07377180000003,129.66892050000024,nan,0.5980918999994169,0.0,,,0.05,None,0,,,129.67233339999984,0.0007036999995762017,0.0007036999995762017,0.045426799999404466,129.73347289999947,129.68375949999972,129.68375949999972,,,,,,,,,01,2025-08-21_13h48.29.437,adaptiveStroop,2023.2.1,59.983360615849456,2025-08-21 13h48.52.437684 +0100,
186,0,186,0,129.75523880000037,,,,,,,,,,,,,,,,,129.73538869999902,187,yellow,red,0.0,m,129.75523880000037,129.75523880000037,130.30354029999944,m,0.648091899999417,1.0,0.5427823000009084,0.5427823000009084,-0.05,m,1,0.5427823000009084,None,130.30923690000054,0.0009128000001510372,0.0009128000001510372,0.09604229999968084,130.4067567000002,,,,,,,,,,,01,2025-08-21_13h48.29.437,adaptiveStroop,2023.2.1,59.983360615849456,2025-08-21 13h48.52.437684 +0100,
187,0,187,0,130.42129249999925,,,,,,,,,,,,,,,,,130.40845210000043,188,red,red,1.0,m,130.42129249999925,130.42129249999925,130.93596199999956,m,0.5980918999994169,1.0,0.5025109999987762,0.5025109999987762,0.0,m,1,0.5025109999987762,None,130.94141879999916,0.0006106000000727363,0.0006106000000727363,0.08487179999974614,131.03083259999948,,,,,,,,,,,01,2025-08-21_13h48.29.437,adaptiveStroop,2023.2.1,59.983360615849456,2025-08-21 13h48.52.437684 +0100,
188,0,188,0,131.0428477000005,,,,,,,,,,,,,,,,,131.0320367000004,189,green,blue,0.0,l,131.0428477000005,131.0428477000005,131.5204262999996,l,0.5980918999994169,1.0,0.4711838000002899,0.4711838000002899,-0.05,l,1,0.4711838000002899,None,131.526499399999,0.0006317000006674789,0.0006317000006674789,0.1163728000010451,131.64866389999952,,,,,,,,,,,01,2025-08-21_13h48.29.437,adaptiveStroop,2023.2.1,59.983360615849456,2025-08-21 13h48.52.437684 +0100,
189,0,189,0,131.66677960000015,,,,,,,,,,,,,,,,,131.65078580000045,190,blue,yellow,0.0,s,131.66677960000015,131.66677960000015,132.18672060000063,s,0.5480918999994169,1.0,0.5101494000009552,0.5101494000009552,-0.05,s,1,0.5101494000009552,None,132.19260980000035,0.000782900000558584,0.000782900000558584,0.04144280000036815,132.25352740000017,,,,,,,,,,,01,2025-08-21_13h48.29.437,adaptiveStroop,2023.2.1,59.983360615849456,2025-08-21 13h48.52.437684 +0100,
190,0,190,0,132.27476559999923,,,,,,,,,,,,,,,,,132.2554968000004,191,green,green,1.0,c,132.27476559999923,132.27476559999923,132.7544395999994,c,0.4980918999994169,1.0,0.4762465000003431,0.4762465000003431,0.0,c,1,0.4762465000003431,None,132.76047239999934,0.0007602000005135778,0.0007602000005135778,0.04032059999917692,132.81326380000064,,,,,,,,,,,01,2025-08-21_13h48.29.437,adaptiveStroop,2023.2.1,59.983360615849456,2025-08-21 13h48.52.437684 +0100,
191,0,191,0,132.83791960000053,,,,,,,,,,,,,,,,,132.81535280000026,192,yellow,blue,0.0,l,132.83791960000053,132.83791960000053,133.3347864999996,nan,0.4980918999994169,0.0,,,0.05,None,0,,,133.3376907999991,0.0004891999997198582,0.0004891999997198582,0.04591240000081598,133.40297309999914,133.35024630000044,133.35024630000044,,,,,,,,,01,2025-08-21_13h48.29.437,adaptiveStroop,2023.2.1,59.983360615849456,2025-08-21 13h48.52.437684 +0100,
192,0,192,0,133.42234300000018,,,,,,,,,,,,,,,,,133.4051202999999,193,blue,green,0.0,c,133.42234300000018,133.42234300000018,133.96807909999916,nan,0.5480918999994169,0.0,,,0.05,None,0,,,133.97138809999888,0.0005997999996907311,0.0005997999996907311,0.04572659999939788,134.03526310000052,133.98343319999913,133.98343319999913,,,,,,,,,01,2025-08-21_13h48.29.437,adaptiveStroop,2023.2.1,59.983360615849456,2025-08-21 13h48.52.437684 +0100,
193,0,193,0,134.05588549999993,,,,,,,,,,,,,,,,,134.0371809999997,194,yellow,yellow,1.0,s,134.05588549999993,134.05588549999993,134.65209089999917,nan,0.5980918999994169,0.0,,,0.0,None,0,,,134.65582209999957,0.000638999999864609,0.000638999999864609,0.044335500000670436,134.712841999999,134.66681289999906,134.66681289999906,,,,,,,,,01,2025-08-21_13h48.29.437,adaptiveStroop,2023.2.1,59.983360615849456,2025-08-21 13h48.52.437684 +0100,
194,0,194,0,134.7272542999999,,,,,,,,,,,,,,,,,134.71473239999978,195,blue,green,0.0,c,134.7272542999999,134.7272542999999,135.31773839999914,nan,0.5980918999994169,0.0,,,0.05,None,0,,,135.32123370000045,0.0006094000000302913,0.0006094000000302913,0.04545150000012654,135.38323169999967,135.33340429999953,135.33340429999953,,,,,,,,,01,2025-08-21_13h48.29.437,adaptiveStroop,2023.2.1,59.983360615849456,2025-08-21 13h48.52.437684 +0100,
195,0,195,0,135.39520690000063,,,,,,,,,,,,,,,,,135.38441799999964,196,yellow,yellow,1.0,s,135.39520690000063,135.39520690000063,135.9846448999997,c,0.648091899999417,0.0,0.5796276999990368,,0.0,c,0,0.5796276999990368,None,135.9871463999989,0.0003400000005058246,0.0003400000005058246,0.057495200000630575,136.05926109999928,,,,,,,,,,,01,2025-08-21_13h48.29.437,adaptiveStroop,2023.2.1,59.983360615849456,2025-08-21 13h48.52.437684 +0100,
196,0,196,0,136.07124459999977,,,,,,,,,,,,,,,,,136.06052509999972,197,red,green,0.0,c,136.07124459999977,136.07124459999977,136.7173230999997,nan,0.648091899999417,0.0,,,0.05,None,0,,,136.71892829999888,0.00039340000148513354,0.00039340000148513354,0.04791000000113854,136.783758399999,136.73321120000037,136.73321120000037,,,,,,,,,01,2025-08-21_13h48.29.437,adaptiveStroop,2023.2.1,59.983360615849456,2025-08-21 13h48.52.437684 +0100,
197,0,197,0,136.7970623000001,,,,,,,,,,,,,,,,,136.78527609999946,198,green,red,0.0,m,136.7970623000001,136.7970623000001,137.48421380000036,nan,0.698091899999417,0.0,,,0.05,None,0,,,137.48631029999888,0.00038979999953880906,0.00038979999953880906,0.04712660000041069,137.55320699999902,137.49993410000025,137.49993410000025,,,,,,,,,01,2025-08-21_13h48.29.437,adaptiveStroop,2023.2.1,59.983360615849456,2025-08-21 13h48.52.437684 +0100,
198,0,198,0,137.57011409999905,,,,,,,,,,,,,,,,,137.5547993,199,blue,blue,1.0,l,137.57011409999905,137.57011409999905,138.15315310000005,l,0.748091899999417,1.0,0.5802516000003379,0.5802516000003379,0.0,l,1,0.5802516000003379,None,138.1590913,0.0007141999994928483,0.0007141999994928483,0.15795690000049945,138.31865379999908,,,,,,,,,,,01,2025-08-21_13h48.29.437,adaptiveStroop,2023.2.1,59.983360615849456,2025-08-21 13h48.52.437684 +0100,
199,0,199,0,138.3392115000006,,,,,,,,,,,,,,,,,138.3205586999993,200,yellow,red,0.0,m,138.3392115000006,138.3392115000006,138.81921189999957,c,0.748091899999417,0.0,0.46802260000004026,,0.05,c,0,0.46802260000004026,None,138.823215299999,0.0005841000001964858,0.0005841000001964858,0.26913190000050236,139.09782280000036,,,,,,,,,,,01,2025-08-21_13h48.29.437,adaptiveStroop,2023.2.1,59.983360615849456,2025-08-21 13h48.52.437684 +0100,
200,0,200,0,139.11190820000047,,,,,,,,,,,,,,,,,139.0999111000001,201,blue,blue,1.0,l,139.11190820000047,139.11190820000047,139.7030816000006,l,0.7980918999994171,1.0,0.5756651000010606,0.5756651000010606,0.0,l,1,0.5756651000010606,None,139.70888100000047,0.0007831999992049532,0.0007831999992049532,0.21304520000012417,139.9234790999999,,,,,,,,,,,01,2025-08-21_13h48.29.437,adaptiveStroop,2023.2.1,59.983360615849456,2025-08-21 13h48.52.437684 +0100,
201,0,201,0,139.9477122999997,,,,,,,,,,,,,,,,,139.9252637999998,202,yellow,green,0.0,c,139.9477122999997,139.9477122999997,140.4357091999991,c,0.7980918999994171,1.0,0.46989709999979823,0.46989709999979823,-0.05,c,1,0.46989709999979823,None,140.4403401999989,0.0005258000001049368,0.0005258000001049368,0.3169330999990052,140.76173689999996,,,,,,,,,,,01,2025-08-21_13h48.29.437,adaptiveStroop,2023.2.1,59.983360615849456,2025-08-21 13h48.52.437684 +0100,
202,0,202,0,140.7739934000001,,,,,,,,,,,,,,,,,140.76383390000046,203,red,red,1.0,m,140.7739934000001,140.7739934000001,141.31986150000012,m,0.748091899999417,1.0,0.5381234000014956,0.5381234000014956,0.0,m,1,0.5381234000014956,None,141.32613689999926,0.0008313999987876741,0.0008313999987876741,0.20031790000030014,141.53227680000055,,,,,,,,,,,01,2025-08-21_13h48.29.437,adaptiveStroop,2023.2.1,59.983360615849456,2025-08-21 13h48.52.437684 +0100,
203,0,203,0,141.54488540000057,,,,,,,,,,,,,,,,,141.53399539999918,204,blue,blue,1.0,l,141.54488540000057,141.54488540000057,142.0522557000004,l,0.748091899999417,1.0,0.502245400000902,0.502245400000902,0.0,l,1,0.502245400000902,None,142.05769150000015,0.0006164999995235121,0.0006164999995235121,0.23675010000079055,142.30097709999973,,,,,,,,,,,01,2025-08-21_13h48.29.437,adaptiveStroop,2023.2.1,59.983360615849456,2025-08-21 13h48.52.437684 +0100,
204,0,204,0,142.3213899000002,,,,,,,,,,,,,,,,,142.30300960000022,205,yellow,green,0.0,c,142.3213899000002,142.3213899000002,142.78568369999994,c,0.748091899999417,1.0,0.4463876000008895,0.4463876000008895,-0.05,c,1,0.4463876000008895,None,142.7903310999991,0.0007601999986945884,0.0007601999986945884,0.29115079999974114,143.08688690000054,,,,,,,,,,,01,2025-08-21_13h48.29.437,adaptiveStroop,2023.2.1,59.983360615849456,2025-08-21 13h48.52.437684 +0100,
205,0,205,0,143.1023796999998,,,,,,,,,,,,,,,,,143.0885613999999,206,red,red,1.0,m,143.1023796999998,143.1023796999998,143.56923599999936,m,0.698091899999417,1.0,0.4594206000001577,0.4594206000001577,0.0,m,1,0.4594206000001577,None,143.57594160000008,0.0007748999996692874,0.0007748999996692874,0.2279407000005449,143.80843939999977,,,,,,,,,,,01,2025-08-21_13h48.29.437,adaptiveStroop,2023.2.1,59.983360615849456,2025-08-21 13h48.52.437684 +0100,
206,0,206,0,143.82222510000065,,,,,,,,,,,,,,,,,143.81023199999981,207,blue,yellow,0.0,s,143.82222510000065,143.82222510000065,144.41795830000046,s,0.698091899999417,1.0,0.582898099999511,0.582898099999511,-0.05,s,1,0.582898099999511,None,144.42189959999996,0.0003882000000885455,0.0003882000000885455,0.10437830000046233,144.53409569999894,,,,,,,,,,,01,2025-08-21_13h48.29.437,adaptiveStroop,2023.2.1,59.983360615849456,2025-08-21 13h48.52.437684 +0100,
207,0,207,0,144.54943880000064,,,,,,,,,,,,,,,,,144.53528740000002,208,green,red,0.0,m,144.54943880000064,144.54943880000064,145.18513059999896,nan,0.648091899999417,0.0,,,0.05,None,0,,,145.18888399999923,0.0007036999995762017,0.0007036999995762017,0.04442930000004708,145.2537580999997,145.19994740000038,145.19994740000038,,,,,,,,,01,2025-08-21_13h48.29.437,adaptiveStroop,2023.2.1,59.983360615849456,2025-08-21 13h48.52.437684 +0100,
208,0,208,0,145.27021029999923,,,,,,,,,,,,,,,,,145.2555752999997,209,red,red,1.0,m,145.27021029999923,145.27021029999923,145.80213639999965,m,0.698091899999417,1.0,0.5220186000005924,0.5220186000005924,0.0,m,1,0.5220186000005924,None,145.80779599999914,0.0006511999999929685,0.0006511999999929685,0.16628599999967264,145.97949659999904,,,,,,,,,,,01,2025-08-21_13h48.29.437,adaptiveStroop,2023.2.1,59.983360615849456,2025-08-21 13h48.52.437684 +0100,
209,0,209,0,145.99679780000042,,,,,,,,,,,,,,,,,145.9811583999999,210,blue,blue,1.0,l,145.99679780000042,145.99679780000042,146.68499039999915,nan,0.698091899999417,0.0,,,0.0,None,0,,,146.68832850000035,0.0007728000000497559,0.0007728000000497559,0.04520149999916612,146.75353369999902,146.69971389999955,146.69971389999955,,,,,,,,,01,2025-08-21_13h48.29.437,adaptiveStroop,2023.2.1,59.983360615849456,2025-08-21 13h48.52.437684 +0100,
210,0,210,0,146.77552189999915,,,,,,,,,,,,,,,,,146.75523799999974,211,yellow,red,0.0,m,146.77552189999915,146.77552189999915,147.41922429999977,m,0.698091899999417,1.0,0.6261189000015293,0.6261189000015293,-0.05,m,1,0.6261189000015293,None,147.4250806,0.0006831000009697163,0.0006831000009697163,0.06251400000110152,147.49372089999997,,,,,,,,,,,01,2025-08-21_13h48.29.437,adaptiveStroop,2023.2.1,59.983360615849456,2025-08-21 13h48.52.437684 +0100,
211,0,211,0,147.51403589999973,,,,,,,,,,,,,,,,,147.49561119999998,212,green,green,1.0,c,147.51403589999973,147.51403589999973,148.1186359000003,c,0.648091899999417,1.0,0.589771799999653,0.589771799999653,0.0,c,1,0.589771799999653,None,148.1239953000004,0.0006712000013067154,0.0006712000013067154,0.0464073000002827,148.187227299999,,,,,,,,,,,01,2025-08-21_13h48.29.437,adaptiveStroop,2023.2.1,59.983360615849456,2025-08-21 13h48.52.437684 +0100,
212,0,212,0,148.20508320000044,,,,,,,,,,,,,,,,,148.1890299000006,213,blue,blue,1.0,l,148.20508320000044,148.20508320000044,148.78558870000052,l,0.648091899999417,1.0,0.5690765999988798,0.5690765999988798,0.0,l,1,0.5690765999988798,None,148.79100800000015,0.0006351000010909047,0.0006351000010909047,0.06968679999954475,148.86677099999906,,,,,,,,,,,01,2025-08-21_13h48.29.437,adaptiveStroop,2023.2.1,59.983360615849456,2025-08-21 13h48.52.437684 +0100,
213,0,213,0,148.8825825999993,,,,,,,,,,,,,,,,,148.86853379999957,214,red,green,0.0,c,148.8825825999993,148.8825825999993,149.5182894999998,nan,0.648091899999417,0.0,,,0.05,None,0,,,149.52168119999988,0.0008378000002267072,0.0008378000002267072,0.044807300000684336,149.58381729999928,149.53256800000054,149.53256800000054,,,,,,,,,01,2025-08-21_13h48.29.437,adaptiveStroop,2023.2.1,59.983360615849456,2025-08-21 13h48.52.437684 +0100,
214,0,214,0,149.60266050000064,,,,,,,,,,,,,,,,,149.58561530000043,215,blue,blue,1.0,l,149.60266050000064,149.60266050000064,150.21852939999917,l,0.698091899999417,1.0,0.6082990000013524,0.6082990000013524,0.0,l,1,0.6082990000013524,None,150.22348149999925,0.0007729000008112052,0.0007729000008112052,0.07963510000081442,150.309030299999,,,,,,,,,,,01,2025-08-21_13h48.29.437,adaptiveStroop,2023.2.1,59.983360615849456,2025-08-21 13h48.52.437684 +0100,
215,0,215,0,150.32347970000046,,,,,,,,,,,,,,,,,150.31079529999988,216,red,red,1.0,m,150.32347970000046,150.32347970000046,150.90188549999948,m,0.698091899999417,1.0,0.5758542000003217,0.5758542000003217,0.0,m,1,0.5758542000003217,None,150.90569850000065,0.0005684999996447004,0.0005684999996447004,0.11326120000012452,151.02517389999957,,,,,,,,,,,01,2025-08-21_13h48.29.437,adaptiveStroop,2023.2.1,59.983360615849456,2025-08-21 13h48.52.437684 +0100,
,,,,,,,,,,,,,,,,,,,,,,,,,,,,,,,,,,,,,,,,,,,,,,,151.02532599999904,151.06254810000064,151.06254810000064,151.06254810000064,151.80408609999904,space,0.730971099999806,None,01,2025-08-21_13h48.29.437,adaptiveStroop,2023.2.1,59.983360615849456,2025-08-21 13h48.52.437684 +0100,
