experimentalBlock.thisRepN,experimentalBlock.thisTrialN,experimentalBlock.thisN,experimentalBlock.thisIndex,thisRow.t,notes,Instruction.started,instImage.started,Instruction.stopped,Instruction2.started,instImage_2.started,Instruction2.stopped,starttask.started,startText.started,moveOn_3.started,starttask.stopped,moveOn_3.keys,moveOn_3.rt,moveOn_3.duration,sequenceGeneration.started,sequenceGeneration.stopped,experimentalTrial.started,myExp.trial,myExp.word,myExp.color,myExp.congruent,myExp.expectedResponse,stroopStim.started,stroopResp.started,stroopStim.stopped,stroopResp.stopped,experimentalTrial.stopped,myExp.observedResponse,myExp.trialDuration,myExp.Accuracy,myExp.step,stroopResp.keys,stroopResp.corr,blank.started,fbCound.started,blankPeriod.started,fbCound.stopped,blank.stopped,myExp.RT_allTrials,myExp.RT_correctTrials,stroopResp.rt,stroopResp.duration,End.started,endImage.started,endText.started,moveOn_4.started,End.stopped,moveOn_4.keys,moveOn_4.rt,moveOn_4.duration,participant,date,expName,psychopyVersion,frameRate,expStart,
,,,,,,0.004701500000010128,0.029659599998922204,16.48073949999889,16.48076519999995,16.495701899999403,18.2980692000001,18.298106399999597,18.3102246999988,18.3102246999988,18.91177930000049,space,0.5954284999988886,None,,,,,,,,,,,,,,,,,,,,,,,,,,,,,,,,,,,,,01,2025-08-21_14h09.00.014,controlStroop,2023.2.1,59.926278692197585,2025-08-21 14h09.11.562219 +0100,
0,0,0,0,19.445164799999475,,,,,,,,,,,,,,,18.911811599999055,19.411143600000287,19.42451970000002,1,green,green,1.0,c,19.445164799999475,19.445164799999475,20.5433522000003,20.5433522000003,20.52842309999869,nan,1.0980918999994174,0.0,0.0,None,0,20.532035000000178,0.00050560000090627,0.00050560000090627,0.04485980000026757,20.59326669999973,,,,,,,,,,,,,01,2025-08-21_14h09.00.014,controlStroop,2023.2.1,59.926278692197585,2025-08-21 14h09.11.562219 +0100,
1,0,1,0,20.607850899999903,,,,,,,,,,,,,,,,,20.59512469999936,2,red,red,1.0,m,20.607850899999903,20.607850899999903,,,21.21393159999934,m,1.0980918999994174,1.0,0.0,m,1,21.22675679999884,0.0006871999994473299,0.0006871999994473299,0.48385939999934635,21.71204260000013,0.6031217999989167,0.6031217999989167,0.6031217999989167,None,,,,,,,,,01,2025-08-21_14h09.00.014,controlStroop,2023.2.1,59.926278692197585,2025-08-21 14h09.11.562219 +0100,
2,0,2,0,21.725276199998916,,,,,,,,,,,,,,,,,21.71346099999937,3,green,green,1.0,c,21.725276199998916,21.725276199998916,22.830319799999415,22.830319799999415,22.816132099998867,nan,1.0980918999994174,0.0,0.0,None,0,22.818664700000227,0.0004891999997198582,0.0004891999997198582,0.04581119999966177,22.882786000000124,,,,,,,,,,,,,01,2025-08-21_14h09.00.014,controlStroop,2023.2.1,59.926278692197585,2025-08-21 14h09.11.562219 +0100,
3,0,3,0,22.9007373000004,,,,,,,,,,,,,,,,,22.884364199999254,4,blue,blue,1.0,l,22.9007373000004,22.9007373000004,,,23.499636399999872,l,1.0980918999994174,1.0,0.0,l,1,23.501683599999524,0.0002804000014293706,0.0002804000014293706,0.4974075999998604,24.016526800000065,0.5920501000000513,0.5920501000000513,0.5920501000000513,None,,,,,,,,,01,2025-08-21_14h09.00.014,controlStroop,2023.2.1,59.926278692197585,2025-08-21 14h09.11.562219 +0100,
4,0,4,0,24.031172400000287,,,,,,,,,,,,,,,,,24.018170199999076,5,green,green,1.0,c,24.031172400000287,24.031172400000287,,,24.515801899999133,c,1.0980918999994174,1.0,0.0,c,1,24.518894999999247,0.00029349999931582715,0.00029349999931582715,0.7360414999984641,25.256077500000174,0.48085039999932633,0.48085039999932633,0.48085039999932633,None,,,,,,,,,01,2025-08-21_14h09.00.014,controlStroop,2023.2.1,59.926278692197585,2025-08-21 14h09.11.562219 +0100,
5,0,5,0,25.266431699999885,,,,,,,,,,,,,,,,,25.25702420000016,6,blue,blue,1.0,l,25.266431699999885,25.266431699999885,,,25.995485600000393,l,1.0980918999994174,1.0,0.0,l,1,26.00057519999973,0.0006484000005002599,0.0006484000005002599,0.36767370000052324,26.37435480000022,0.7214554999991378,0.7214554999991378,0.7214554999991378,None,,,,,,,,,01,2025-08-21_14h09.00.014,controlStroop,2023.2.1,59.926278692197585,2025-08-21 14h09.11.562219 +0100,
6,0,6,0,26.393088900000294,,,,,,,,,,,,,,,,,26.376542799998788,7,yellow,yellow,1.0,s,26.393088900000294,26.393088900000294,,,26.89512730000024,s,1.0980918999994174,1.0,0.0,s,1,26.89912480000021,0.0005129000001034001,0.0005129000001034001,0.5928523999991739,27.498067399999854,0.49433550000139803,0.49433550000139803,0.49433550000139803,None,,,,,,,,,01,2025-08-21_14h09.00.014,controlStroop,2023.2.1,59.926278692197585,2025-08-21 14h09.11.562219 +0100,
7,0,7,0,27.50939440000002,,,,,,,,,,,,,,,,,27.499673999998777,8,blue,blue,1.0,l,27.50939440000002,27.50939440000002,28.609365999998772,28.609365999998772,28.594206499999927,nan,1.0980918999994174,0.0,0.0,None,0,28.597383500000433,0.0006311999986792216,0.0006311999986792216,0.045751399999062414,28.66316050000023,,,,,,,,,,,,,01,2025-08-21_14h09.00.014,controlStroop,2023.2.1,59.926278692197585,2025-08-21 14h09.11.562219 +0100,
8,0,8,0,28.678188099998806,,,,,,,,,,,,,,,,,28.665069099999528,9,green,green,1.0,c,28.678188099998806,28.678188099998806,,,29.362076499999603,c,1.0980918999994174,1.0,0.0,c,1,29.366666599999007,0.0004503999989537988,0.0004503999989537988,0.4073393999988184,29.779966799998874,0.6801832000001014,0.6801832000001014,0.6801832000001014,None,,,,,,,,,01,2025-08-21_14h09.00.014,controlStroop,2023.2.1,59.926278692197585,2025-08-21 14h09.11.562219 +0100,
9,0,9,0,29.79358239999965,,,,,,,,,,,,,,,,,29.78198909999992,10,yellow,yellow,1.0,s,29.79358239999965,29.79358239999965,,,30.245231400000193,s,1.0980918999994174,1.0,0.0,s,1,30.24996049999936,0.0006537999997817678,0.0006537999997817678,0.6497613999999885,30.90604869999879,0.439110500001334,0.439110500001334,0.439110500001334,None,,,,,,,,,01,2025-08-21_14h09.00.014,controlStroop,2023.2.1,59.926278692197585,2025-08-21 14h09.11.562219 +0100,
10,0,10,0,30.91769430000022,,,,,,,,,,,,,,,,,30.907282599999235,11,green,green,1.0,c,30.91769430000022,30.91769430000022,,,31.395165399999314,c,1.0980918999994174,1.0,0.0,c,1,31.39994039999874,0.0006252999992284458,0.0006252999992284458,0.6283158999995067,32.03329060000033,0.46067799999946146,0.46067799999946146,0.46067799999946146,None,,,,,,,,,01,2025-08-21_14h09.00.014,controlStroop,2023.2.1,59.926278692197585,2025-08-21 14h09.11.562219 +0100,
11,0,11,0,32.045469599999706,,,,,,,,,,,,,,,,,32.0345226999998,12,blue,blue,1.0,l,32.045469599999706,32.045469599999706,,,32.578643400000146,l,1.0980918999994174,1.0,0.0,l,1,32.583299399999305,0.0005025999998906627,0.0005025999998906627,0.5602318000001105,33.14932520000002,0.5285532999987481,0.5285532999987481,0.5285532999987481,None,,,,,,,,,01,2025-08-21_14h09.00.014,controlStroop,2023.2.1,59.926278692197585,2025-08-21 14h09.11.562219 +0100,
12,0,12,0,33.16524219999883,,,,,,,,,,,,,,,,,33.15111419999994,13,yellow,yellow,1.0,s,33.16524219999883,33.16524219999883,,,33.57919690000017,c,1.0980918999994174,0.0,0.0,c,0,33.58450649999941,0.0006423000013455749,0.0006423000013455749,0.6772326000009343,34.2672838999988,0.4109715000013239,,0.4109715000013239,None,,,,,,,,,01,2025-08-21_14h09.00.014,controlStroop,2023.2.1,59.926278692197585,2025-08-21 14h09.11.562219 +0100,
13,0,13,0,34.278200699998706,,,,,,,,,,,,,,,,,34.26882019999903,14,red,red,1.0,m,34.278200699998706,34.278200699998706,,,34.795748399999866,m,1.0980918999994174,1.0,0.0,m,1,34.80081210000026,0.0006257999993977137,0.0006257999993977137,0.5770305999994889,35.383668399999806,0.5107248999993317,0.5107248999993317,0.5107248999993317,None,,,,,,,,,01,2025-08-21_14h09.00.014,controlStroop,2023.2.1,59.926278692197585,2025-08-21 14h09.11.562219 +0100,
14,0,14,0,35.39815780000026,,,,,,,,,,,,,,,,,35.38554639999893,15,yellow,yellow,1.0,s,35.39815780000026,35.39815780000026,,,35.777440199999546,s,1.0980918999994174,1.0,0.0,s,1,35.77983839999979,0.0003192000003764406,0.0003192000003764406,0.7164169999996375,36.51028629999928,0.37170250000053784,0.37170250000053784,0.37170250000053784,None,,,,,,,,,01,2025-08-21_14h09.00.014,controlStroop,2023.2.1,59.926278692197585,2025-08-21 14h09.11.562219 +0100,
15,0,15,0,36.52548779999961,,,,,,,,,,,,,,,,,36.51229070000045,16,blue,blue,1.0,l,36.52548779999961,36.52548779999961,,,36.945776399999886,l,1.0980918999994174,1.0,0.0,l,1,36.95170159999907,0.0006893999998283107,0.0006893999998283107,0.6708615999996255,37.62391620000017,0.41771329999937734,0.41771329999937734,0.41771329999937734,None,,,,,,,,,01,2025-08-21_14h09.00.014,controlStroop,2023.2.1,59.926278692197585,2025-08-21 14h09.11.562219 +0100,
16,0,16,0,37.63672659999975,,,,,,,,,,,,,,,,,37.62599829999999,17,red,red,1.0,m,37.63672659999975,37.63672659999975,,,38.09386819999963,m,1.0980918999994174,1.0,0.0,m,1,38.09787250000045,0.0004982000009476906,0.0004982000009476906,0.6420429999998305,38.746047499998895,0.4466008999988844,0.4466008999988844,0.4466008999988844,None,,,,,,,,,01,2025-08-21_14h09.00.014,controlStroop,2023.2.1,59.926278692197585,2025-08-21 14h09.11.562219 +0100,
17,0,17,0,38.759401100000105,,,,,,,,,,,,,,,,,38.747776399999566,18,blue,blue,1.0,l,38.759401100000105,38.759401100000105,,,39.17791319999924,l,1.0980918999994174,1.0,0.0,l,1,39.182289799999126,0.0007729000008112052,0.0007729000008112052,0.6796438000001217,39.867459099999905,0.4089715000009164,0.4089715000009164,0.4089715000009164,None,,,,,,,,,01,2025-08-21_14h09.00.014,controlStroop,2023.2.1,59.926278692197585,2025-08-21 14h09.11.562219 +0100,
18,0,18,0,39.88371410000036,,,,,,,,,,,,,,,,,39.869252000000415,19,yellow,yellow,1.0,s,39.88371410000036,39.88371410000036,,,40.32813530000021,s,1.0980918999994174,1.0,0.0,s,1,40.33347059999869,0.0007898999992903555,0.0007898999992903555,0.6564966999994795,40.99581190000026,0.4326307999999699,0.4326307999999699,0.4326307999999699,None,,,,,,,,,01,2025-08-21_14h09.00.014,controlStroop,2023.2.1,59.926278692197585,2025-08-21 14h09.11.562219 +0100,
19,0,19,0,41.009715599999254,,,,,,,,,,,,,,,,,40.99725109999963,20,blue,blue,1.0,l,41.009715599999254,41.009715599999254,,,41.59475190000012,l,1.0980918999994174,1.0,0.0,l,1,41.59961850000036,0.0005844999996043043,0.0005844999996043043,0.5148294999999052,42.119797800000015,0.5735864999987825,0.5735864999987825,0.5735864999987825,None,,,,,,,,,01,2025-08-21_14h09.00.014,controlStroop,2023.2.1,59.926278692197585,2025-08-21 14h09.11.562219 +0100,
20,0,20,0,42.13273329999902,,,,,,,,,,,,,,,,,42.1213403999991,21,red,red,1.0,m,42.13273329999902,42.13273329999902,,,42.610811900000044,m,1.0980918999994174,1.0,0.0,m,1,42.6156004000004,0.0006661999996140366,0.0006661999996140366,0.6223907999992662,43.24381379999977,0.4657148000005691,0.4657148000005691,0.4657148000005691,None,,,,,,,,,01,2025-08-21_14h09.00.014,controlStroop,2023.2.1,59.926278692197585,2025-08-21 14h09.11.562219 +0100,
21,0,21,0,43.25719140000001,,,,,,,,,,,,,,,,,43.24539259999983,22,yellow,yellow,1.0,s,43.25719140000001,43.25719140000001,,,43.6110007999996,c,1.0980918999994174,0.0,0.0,c,0,43.61557439999888,0.0006197999991854886,0.0006197999991854886,0.7449384999999893,44.36588379999921,0.3438650999996753,,0.3438650999996753,None,,,,,,,,,01,2025-08-21_14h09.00.014,controlStroop,2023.2.1,59.926278692197585,2025-08-21 14h09.11.562219 +0100,
22,0,22,0,44.37940229999913,,,,,,,,,,,,,,,,,44.36752929999966,23,blue,blue,1.0,l,44.37940229999913,44.37940229999913,,,44.794911400000274,l,1.0980918999994174,1.0,0.0,l,1,44.799645499999315,0.0007473999994545011,0.0007473999994545011,0.6775418999986869,45.47851009999977,0.4125218000008317,0.4125218000008317,0.4125218000008317,None,,,,,,,,,01,2025-08-21_14h09.00.014,controlStroop,2023.2.1,59.926278692197585,2025-08-21 14h09.11.562219 +0100,
23,0,23,0,45.488876999999775,,,,,,,,,,,,,,,,,45.47987739999917,24,green,green,1.0,c,45.488876999999775,45.488876999999775,,,45.99411499999951,c,1.0980918999994174,1.0,0.0,c,1,45.99795069999891,0.0004318999999668449,0.0004318999999668449,0.5953741000012087,46.598799399998825,0.49322810000012396,0.49322810000012396,0.49322810000012396,None,,,,,,,,,01,2025-08-21_14h09.00.014,controlStroop,2023.2.1,59.926278692197585,2025-08-21 14h09.11.562219 +0100,
24,0,24,0,46.61149680000017,,,,,,,,,,,,,,,,,46.600125999999364,25,blue,blue,1.0,l,46.61149680000017,46.61149680000017,,,47.09395149999909,l,1.0980918999994174,1.0,0.0,l,1,47.09822390000045,0.0005608999999822117,0.0005608999999822117,0.6164774999997462,47.720395799999096,0.471171700000923,0.471171700000923,0.471171700000923,None,,,,,,,,,01,2025-08-21_14h09.00.014,controlStroop,2023.2.1,59.926278692197585,2025-08-21 14h09.11.562219 +0100,
25,0,25,0,47.731657299998915,,,,,,,,,,,,,,,,,47.72208279999904,26,red,red,1.0,m,47.731657299998915,47.731657299998915,,,48.19387029999962,m,1.0980918999994174,1.0,0.0,m,1,48.19744119999996,0.0004322000004322035,0.0004322000004322035,0.6331800000007206,48.84216489999926,0.45418729999983043,0.45418729999983043,0.45418729999983043,None,,,,,,,,,01,2025-08-21_14h09.00.014,controlStroop,2023.2.1,59.926278692197585,2025-08-21 14h09.11.562219 +0100,
26,0,26,0,48.8592807999994,,,,,,,,,,,,,,,,,48.84419789999993,27,green,green,1.0,c,48.8592807999994,48.8592807999994,,,49.39371769999889,c,1.0980918999994174,1.0,0.0,c,1,49.39847209999971,0.0006316999988484895,0.0006316999988484895,0.5676338999983273,49.9709888999987,0.5207468999997218,0.5207468999997218,0.5207468999997218,None,,,,,,,,,01,2025-08-21_14h09.00.014,controlStroop,2023.2.1,59.926278692197585,2025-08-21 14h09.11.562219 +0100,
27,0,27,0,49.98762589999933,,,,,,,,,,,,,,,,,49.9728027000001,28,yellow,yellow,1.0,s,49.98762589999933,49.98762589999933,,,50.42643270000008,s,1.0980918999994174,1.0,0.0,s,1,50.43153650000022,0.0005278999997244682,0.0005278999997244682,0.664716799999951,51.10166879999997,0.4233500999998796,0.4233500999998796,0.4233500999998796,None,,,,,,,,,01,2025-08-21_14h09.00.014,controlStroop,2023.2.1,59.926278692197585,2025-08-21 14h09.11.562219 +0100,
28,0,28,0,51.11689979999937,,,,,,,,,,,,,,,,,51.103444899999886,29,green,green,1.0,c,51.11689979999937,51.11689979999937,,,51.72743830000036,c,1.0980918999994174,1.0,0.0,c,1,51.73200089999955,0.000559800000701216,0.000559800000701216,0.48737790000086534,52.225913799999034,0.6013120999996318,0.6013120999996318,0.6013120999996318,None,,,,,,,,,01,2025-08-21_14h09.00.014,controlStroop,2023.2.1,59.926278692197585,2025-08-21 14h09.11.562219 +0100,
29,0,29,0,52.23923449999893,,,,,,,,,,,,,,,,,52.22778939999989,30,red,red,1.0,m,52.23923449999893,52.23923449999893,,,52.69371729999875,m,1.0980918999994174,1.0,0.0,m,1,52.69769909999923,0.0004291000004741363,0.0004291000004741363,0.6426965999999084,53.34628089999933,0.4451822999999422,0.4451822999999422,0.4451822999999422,None,,,,,,,,,01,2025-08-21_14h09.00.014,controlStroop,2023.2.1,59.926278692197585,2025-08-21 14h09.11.562219 +0100,
30,0,30,0,53.35945829999946,,,,,,,,,,,,,,,,,53.34801569999945,31,blue,blue,1.0,l,53.35945829999946,53.35945829999946,,,53.74485959999947,l,1.0980918999994174,1.0,0.0,l,1,53.75009510000018,0.0007557999997516163,0.0007557999997516163,0.7068701999996847,54.45842090000042,0.3816869999991468,0.3816869999991468,0.3816869999991468,None,,,,,,,,,01,2025-08-21_14h09.00.014,controlStroop,2023.2.1,59.926278692197585,2025-08-21 14h09.11.562219 +0100,
31,0,31,0,54.47175739999875,,,,,,,,,,,,,,,,,54.46095079999941,32,red,red,1.0,m,54.47175739999875,54.47175739999875,,,54.9430543999988,m,1.0980918999994174,1.0,0.0,m,1,54.946415599999455,0.00042500000017753337,0.00042500000017753337,0.6186756000006426,55.57528300000013,0.4691392000004271,0.4691392000004271,0.4691392000004271,None,,,,,,,,,01,2025-08-21_14h09.00.014,controlStroop,2023.2.1,59.926278692197585,2025-08-21 14h09.11.562219 +0100,
32,0,32,0,55.591212899998936,,,,,,,,,,,,,,,,,55.577227499999935,33,blue,blue,1.0,l,55.591212899998936,55.591212899998936,,,56.092995599999995,l,1.0980918999994174,1.0,0.0,l,1,56.09691639999983,0.0005017999992560362,0.0005017999992560362,0.5974547999994684,56.70888659999946,0.48826480000025185,0.48826480000025185,0.48826480000025185,None,,,,,,,,,01,2025-08-21_14h09.00.014,controlStroop,2023.2.1,59.926278692197585,2025-08-21 14h09.11.562219 +0100,
33,0,33,0,56.72466270000041,,,,,,,,,,,,,,,,,56.71029189999899,34,green,green,1.0,c,56.72466270000041,56.72466270000041,,,57.15900639999927,c,1.0980918999994174,1.0,0.0,c,1,57.161690900000394,0.00031960000160324853,0.00031960000160324853,0.6568176000000676,57.82504080000035,0.4313889000004565,0.4313889000004565,0.4313889000004565,None,,,,,,,,,01,2025-08-21_14h09.00.014,controlStroop,2023.2.1,59.926278692197585,2025-08-21 14h09.11.562219 +0100,
34,0,34,0,57.843003599999065,,,,,,,,,,,,,,,,,57.8272407000004,35,red,red,1.0,m,57.843003599999065,57.843003599999065,,,58.39380969999911,m,1.0980918999994174,1.0,0.0,m,1,58.3984118999997,0.00046459999975922983,0.00046459999975922983,0.5496282999993127,58.95317849999992,0.5383438999997452,0.5383438999997452,0.5383438999997452,None,,,,,,,,,01,2025-08-21_14h09.00.014,controlStroop,2023.2.1,59.926278692197585,2025-08-21 14h09.11.562219 +0100,
35,0,35,0,58.96467069999926,,,,,,,,,,,,,,,,,58.95484860000033,36,green,green,1.0,c,58.96467069999926,58.96467069999926,,,59.493411299999934,c,1.0980918999994174,1.0,0.0,c,1,59.497276099999,0.0004602999997587176,0.0004602999997587176,0.5745593999999983,60.07799129999876,0.5138499000004231,0.5138499000004231,0.5138499000004231,None,,,,,,,,,01,2025-08-21_14h09.00.014,controlStroop,2023.2.1,59.926278692197585,2025-08-21 14h09.11.562219 +0100,
36,0,36,0,60.08888819999993,,,,,,,,,,,,,,,,,60.0795177,37,red,red,1.0,m,60.08888819999993,60.08888819999993,,,60.71314539999912,l,1.0980918999994174,0.0,0.0,l,0,60.71787559999939,0.0005466000002343208,0.0005466000002343208,0.46769940000012866,61.18727419999959,0.620052600001145,,0.620052600001145,None,,,,,,,,,01,2025-08-21_14h09.00.014,controlStroop,2023.2.1,59.926278692197585,2025-08-21 14h09.11.562219 +0100,
37,0,37,0,61.205012200000056,,,,,,,,,,,,,,,,,61.18901579999874,38,blue,blue,1.0,l,61.205012200000056,61.205012200000056,,,61.76018809999914,l,1.0980918999994174,1.0,0.0,l,1,61.76506469999913,0.000378400000045076,0.000378400000045076,0.5370425000000978,62.307834600000206,0.5507311999990634,0.5507311999990634,0.5507311999990634,None,,,,,,,,,01,2025-08-21_14h09.00.014,controlStroop,2023.2.1,59.926278692197585,2025-08-21 14h09.11.562219 +0100,
38,0,38,0,62.322595899999214,,,,,,,,,,,,,,,,,62.309662699999535,39,green,green,1.0,c,62.322595899999214,62.322595899999214,,,62.94365300000027,c,1.0980918999994174,1.0,0.0,c,1,62.94825689999925,0.0004881999993813224,0.0004881999993813224,0.479483999999502,63.432720200000404,0.6079549999994924,0.6079549999994924,0.6079549999994924,None,,,,,,,,,01,2025-08-21_14h09.00.014,controlStroop,2023.2.1,59.926278692197585,2025-08-21 14h09.11.562219 +0100,
39,0,39,0,63.44181019999996,,,,,,,,,,,,,,,,,63.43383679999897,40,blue,blue,1.0,l,63.44181019999996,63.44181019999996,,,63.960498799999186,l,1.0980918999994174,1.0,0.0,l,1,63.96584040000016,0.0008006999996723607,0.0008006999996723607,0.5728493999995408,64.54451039999913,0.5153425000007701,0.5153425000007701,0.5153425000007701,None,,,,,,,,,01,2025-08-21_14h09.00.014,controlStroop,2023.2.1,59.926278692197585,2025-08-21 14h09.11.562219 +0100,
40,0,40,0,64.5587048999987,,,,,,,,,,,,,,,,,64.54716499999995,41,green,green,1.0,c,64.5587048999987,64.5587048999987,,,65.17684410000038,c,1.0980918999994174,1.0,0.0,c,1,65.18104779999885,0.0004760000010719523,0.0004760000010719523,0.4834312000002683,65.6706137000001,0.603838299999552,0.603838299999552,0.603838299999552,None,,,,,,,,,01,2025-08-21_14h09.00.014,controlStroop,2023.2.1,59.926278692197585,2025-08-21 14h09.11.562219 +0100,
41,0,41,0,65.6888958999989,,,,,,,,,,,,,,,,,65.67239100000006,42,red,red,1.0,m,65.6888958999989,65.6888958999989,,,66.11118849999912,m,1.0980918999994174,1.0,0.0,m,1,66.11910549999993,0.0010628999989421573,0.0010628999989421573,0.6705420999987837,66.79527199999939,0.4166499999992084,0.4166499999992084,0.4166499999992084,None,,,,,,,,,01,2025-08-21_14h09.00.014,controlStroop,2023.2.1,59.926278692197585,2025-08-21 14h09.11.562219 +0100,
42,0,42,0,66.81133740000041,,,,,,,,,,,,,,,,,66.79694849999942,43,green,green,1.0,c,66.81133740000041,66.81133740000041,,,67.59315830000014,s,1.0980918999994174,0.0,0.0,s,0,67.59830379999948,0.0007385000008071074,0.0007385000008071074,0.31242330000168295,67.9161537,0.7768701000004512,,0.7768701000004512,None,,,,,,,,,01,2025-08-21_14h09.00.014,controlStroop,2023.2.1,59.926278692197585,2025-08-21 14h09.11.562219 +0100,
43,0,43,0,67.93326299999899,,,,,,,,,,,,,,,,,67.91818179999973,44,blue,blue,1.0,l,67.93326299999899,67.93326299999899,69.04087020000043,69.04087020000043,69.02607609999905,nan,1.0980918999994174,0.0,0.0,None,0,69.0298141000003,0.0008992000002763234,0.0008992000002763234,0.04439300000012736,69.09387500000048,,,,,,,,,,,,,01,2025-08-21_14h09.00.014,controlStroop,2023.2.1,59.926278692197585,2025-08-21 14h09.11.562219 +0100,
44,0,44,0,69.1104204000003,,,,,,,,,,,,,,,,,69.09566610000002,45,red,red,1.0,m,69.1104204000003,69.1104204000003,70.22413459999916,70.22413459999916,70.2093905999991,nan,1.0980918999994174,0.0,0.0,None,0,70.21350119999988,0.0012328000011621043,0.0012328000011621043,0.044383800001014606,70.2728346999993,,,,,,,,,,,,,01,2025-08-21_14h09.00.014,controlStroop,2023.2.1,59.926278692197585,2025-08-21 14h09.11.562219 +0100,
45,0,45,0,70.29606450000028,,,,,,,,,,,,,,,,,70.27478200000041,46,green,green,1.0,c,70.29606450000028,70.29606450000028,71.40717649999897,71.40717649999897,71.39316870000039,nan,1.0980918999994174,0.0,0.0,None,0,71.39673249999942,0.0007454999995388789,0.0007454999995388789,0.043863999999302905,71.4547408999988,,,,,,,,,,,,,01,2025-08-21_14h09.00.014,controlStroop,2023.2.1,59.926278692197585,2025-08-21 14h09.11.562219 +0100,
46,0,46,0,71.47010059999957,,,,,,,,,,,,,,,,,71.45670989999962,47,red,red,1.0,m,71.47010059999957,71.47010059999957,72.5734952999992,72.5734952999992,72.55898239999988,nan,1.0980918999994174,0.0,0.0,None,0,72.5626269000004,0.0006910000010975637,0.0006910000010975637,0.044749500000762055,72.62254120000034,,,,,,,,,,,,,01,2025-08-21_14h09.00.014,controlStroop,2023.2.1,59.926278692197585,2025-08-21 14h09.11.562219 +0100,
47,0,47,0,72.65057650000017,,,,,,,,,,,,,,,,,72.62486109999918,48,yellow,yellow,1.0,s,72.65057650000017,72.65057650000017,73.75712649999878,73.75712649999878,73.74238409999998,nan,1.0980918999994174,0.0,0.0,None,0,73.74651110000013,0.0014324000003398396,0.0014324000003398396,0.04434919999948761,73.80346239999926,,,,,,,,,,,,,01,2025-08-21_14h09.00.014,controlStroop,2023.2.1,59.926278692197585,2025-08-21 14h09.11.562219 +0100,
48,0,48,0,73.82289429999946,,,,,,,,,,,,,,,,,73.80576130000009,49,green,green,1.0,c,73.82289429999946,73.82289429999946,74.92360299999928,74.92360299999928,74.90800499999932,nan,1.0980918999994174,0.0,0.0,None,0,74.91134729999976,0.000738900000214926,0.000738900000214926,0.0456465000006574,74.97254579999935,,,,,,,,,,,,,01,2025-08-21_14h09.00.014,controlStroop,2023.2.1,59.926278692197585,2025-08-21 14h09.11.562219 +0100,
49,0,49,0,74.99117339999975,,,,,,,,,,,,,,,,,74.97443679999924,50,blue,blue,1.0,l,74.99117339999975,74.99117339999975,76.09557049999967,76.09557049999967,76.07930999999917,nan,1.0980918999994174,0.0,0.0,None,0,76.08277269999962,0.0007375000004685717,0.0007375000004685717,0.04648140000062995,76.1428990000004,,,,,,,,,,,,,01,2025-08-21_14h09.00.014,controlStroop,2023.2.1,59.926278692197585,2025-08-21 14h09.11.562219 +0100,
50,0,50,0,76.16451779999989,,,,,,,,,,,,,,,,,76.14548009999999,51,yellow,yellow,1.0,s,76.16451779999989,76.16451779999989,77.26084699999956,77.26084699999956,77.24780719999944,nan,1.0980918999994174,0.0,0.0,None,0,77.25133099999948,0.000780099999246886,0.000780099999246886,0.06091539999943052,77.3230309999999,,,,,,,,,,,,,01,2025-08-21_14h09.00.014,controlStroop,2023.2.1,59.926278692197585,2025-08-21 14h09.11.562219 +0100,
51,0,51,0,77.47326509999948,,,,,,,,,,,,,,,,,77.32658309999897,52,blue,blue,1.0,l,77.47326509999948,77.47326509999948,78.57304959999965,78.57304959999965,78.55678989999979,nan,1.0980918999994174,0.0,0.0,None,0,78.55825779999941,0.00032109999847307336,0.00032109999847307336,0.0484664999985398,78.62273929999901,,,,,,,,,,,,,01,2025-08-21_14h09.00.014,controlStroop,2023.2.1,59.926278692197585,2025-08-21 14h09.11.562219 +0100,
52,0,52,0,78.63698789999944,,,,,,,,,,,,,,,,,78.62420389999897,53,red,red,1.0,m,78.63698789999944,78.63698789999944,79.73979979999967,79.73979979999967,79.72431599999982,nan,1.0980918999994174,0.0,0.0,None,0,79.72719189999953,0.0006059000006644055,0.0006059000006644055,0.046525300000212155,79.79311219999909,,,,,,,,,,,,,01,2025-08-21_14h09.00.014,controlStroop,2023.2.1,59.926278692197585,2025-08-21 14h09.11.562219 +0100,
53,0,53,0,79.80379439999888,,,,,,,,,,,,,,,,,79.79425330000049,54,blue,blue,1.0,l,79.80379439999888,79.80379439999888,80.90649069999927,80.90649069999927,80.89105930000005,nan,1.0980918999994174,0.0,0.0,None,0,80.8939150999995,0.0006000000012136297,0.0006000000012136297,0.04617310000139696,80.95285979999971,,,,,,,,,,,,,01,2025-08-21_14h09.00.014,controlStroop,2023.2.1,59.926278692197585,2025-08-21 14h09.11.562219 +0100,
54,0,54,0,80.96815859999879,,,,,,,,,,,,,,,,,80.95451139999932,55,yellow,yellow,1.0,s,80.96815859999879,80.96815859999879,82.0731925,82.0731925,82.05839649999871,nan,1.0980918999994174,0.0,0.0,None,0,82.06218319999971,0.0009620999990147538,0.0009620999990147538,0.044550799999342416,82.1230486000004,,,,,,,,,,,,,01,2025-08-21_14h09.00.014,controlStroop,2023.2.1,59.926278692197585,2025-08-21 14h09.11.562219 +0100,
55,0,55,0,82.1415337999988,,,,,,,,,,,,,,,,,82.12482769999951,56,green,green,1.0,c,82.1415337999988,82.1415337999988,83.24015539999891,83.24015539999891,83.22466270000041,nan,1.0980918999994174,0.0,0.0,None,0,83.22805139999946,0.0008360000010725344,0.0008360000010725344,0.04543310000008205,83.29378910000014,,,,,,,,,,,,,01,2025-08-21_14h09.00.014,controlStroop,2023.2.1,59.926278692197585,2025-08-21 14h09.11.562219 +0100,
56,0,56,0,83.31506959999933,,,,,,,,,,,,,,,,,83.29571179999948,57,red,red,1.0,m,83.31506959999933,83.31506959999933,84.42332129999886,84.42332129999886,84.40817380000044,nan,1.0980918999994174,0.0,0.0,None,0,84.41134779999993,0.0008274000010715099,0.0008274000010715099,0.045443900000464055,84.47309719999976,,,,,,,,,,,,,01,2025-08-21_14h09.00.014,controlStroop,2023.2.1,59.926278692197585,2025-08-21 14h09.11.562219 +0100,
57,0,57,0,84.4944357000004,,,,,,,,,,,,,,,,,84.47474489999877,58,yellow,yellow,1.0,s,84.4944357000004,84.4944357000004,,,85.19278089999898,s,1.0980918999994174,1.0,0.0,s,1,85.19898019999891,0.0009938999992300523,0.0009938999992300523,0.3985378999987006,85.59893720000036,0.6908429000013712,0.6908429000013712,0.6908429000013712,None,,,,,,,,,01,2025-08-21_14h09.00.014,controlStroop,2023.2.1,59.926278692197585,2025-08-21 14h09.11.562219 +0100,
58,0,58,0,85.61475939999946,,,,,,,,,,,,,,,,,85.60054320000017,59,green,green,1.0,c,85.61475939999946,85.61475939999946,,,86.17610570000033,c,1.0980918999994174,1.0,0.0,c,1,86.18198909999956,0.000662200000078883,0.000662200000078883,0.5405201000012312,86.72437600000012,0.5501753000007739,0.5501753000007739,0.5501753000007739,None,,,,,,,,,01,2025-08-21_14h09.00.014,controlStroop,2023.2.1,59.926278692197585,2025-08-21 14h09.11.562219 +0100,
59,0,59,0,86.74647509999886,,,,,,,,,,,,,,,,,86.7262142999989,60,red,red,1.0,m,86.74647509999886,86.74647509999886,,,87.40971439999885,m,1.0980918999994174,1.0,0.0,m,1,87.41615119999915,0.0010092000011354685,0.0010092000011354685,0.4361263000009785,87.85873050000009,0.6521687999993446,0.6521687999993446,0.6521687999993446,None,,,,,,,,,01,2025-08-21_14h09.00.014,controlStroop,2023.2.1,59.926278692197585,2025-08-21 14h09.11.562219 +0100,
60,0,60,0,87.87748939999983,,,,,,,,,,,,,,,,,87.86074550000012,61,blue,blue,1.0,l,87.87748939999983,87.87748939999983,,,88.2922925999992,l,1.0980918999994174,1.0,0.0,l,1,88.29833510000026,0.0008912000012060162,0.0008912000012060162,0.6847102000010636,88.98617459999878,0.4014573999993445,0.4014573999993445,0.4014573999993445,None,,,,,,,,,01,2025-08-21_14h09.00.014,controlStroop,2023.2.1,59.926278692197585,2025-08-21 14h09.11.562219 +0100,
61,0,61,0,88.99356169999919,,,,,,,,,,,,,,,,,88.98696380000001,62,green,green,1.0,c,88.99356169999919,88.99356169999919,,,89.47467659999893,c,1.0980918999994174,1.0,0.0,c,1,89.4783742999989,0.0004303999994590413,0.0004303999994590413,0.6104763999992429,90.09447249999903,0.4777622000001429,0.4777622000001429,0.4777622000001429,None,,,,,,,,,01,2025-08-21_14h09.00.014,controlStroop,2023.2.1,59.926278692197585,2025-08-21 14h09.11.562219 +0100,
62,0,62,0,90.1114538999991,,,,,,,,,,,,,,,,,90.09762919999957,63,red,red,1.0,m,90.1114538999991,90.1114538999991,,,90.59355739999955,m,1.0980918999994174,1.0,0.0,m,1,90.59899629999927,0.000776400000177091,0.000776400000177091,0.6106959999997343,91.2111060999996,0.47840849999920465,0.47840849999920465,0.47840849999920465,None,,,,,,,,,01,2025-08-21_14h09.00.014,controlStroop,2023.2.1,59.926278692197585,2025-08-21 14h09.11.562219 +0100,
63,0,63,0,91.22707629999968,,,,,,,,,,,,,,,,,91.21261289999893,64,yellow,yellow,1.0,s,91.22707629999968,91.22707629999968,,,91.69253670000035,s,1.0980918999994174,1.0,0.0,s,1,91.69763959999909,0.0007487000002583954,0.0007487000002583954,0.6250326000008499,92.32933459999913,0.4630295000006299,0.4630295000006299,0.4630295000006299,None,,,,,,,,,01,2025-08-21_14h09.00.014,controlStroop,2023.2.1,59.926278692197585,2025-08-21 14h09.11.562219 +0100,
64,0,64,0,92.34650359999978,,,,,,,,,,,,,,,,,92.33122899999944,65,green,green,1.0,c,92.34650359999978,92.34650359999978,,,92.97526019999896,c,1.0980918999994174,1.0,0.0,c,1,92.97999499999969,0.0006620999993174337,0.0006620999993174337,0.4619896999993216,93.44641849999971,0.6250316999994538,0.6250316999994538,0.6250316999994538,None,,,,,,,,,01,2025-08-21_14h09.00.014,controlStroop,2023.2.1,59.926278692197585,2025-08-21 14h09.11.562219 +0100,
65,0,65,0,93.45604569999887,,,,,,,,,,,,,,,,,93.44729819999884,66,blue,blue,1.0,l,93.45604569999887,93.45604569999887,,,93.94031709999945,l,1.0980918999994174,1.0,0.0,l,1,93.94514209999943,0.0005737999999837484,0.0005737999999837484,0.6084066999992501,94.55926939999881,0.47873729999992065,0.47873729999992065,0.47873729999992065,None,,,,,,,,,01,2025-08-21_14h09.00.014,controlStroop,2023.2.1,59.926278692197585,2025-08-21 14h09.11.562219 +0100,
66,0,66,0,94.57025690000046,,,,,,,,,,,,,,,,,94.56054620000032,67,red,red,1.0,m,94.57025690000046,94.57025690000046,,,95.04168459999892,m,1.0980918999994174,1.0,0.0,m,1,95.04709410000032,0.0006236000008357223,0.0006236000008357223,0.6311137000011513,95.68374349999976,0.4576721000012185,0.4576721000012185,0.4576721000012185,None,,,,,,,,,01,2025-08-21_14h09.00.014,controlStroop,2023.2.1,59.926278692197585,2025-08-21 14h09.11.562219 +0100,
67,0,67,0,95.69796889999998,,,,,,,,,,,,,,,,,95.68517919999977,68,yellow,yellow,1.0,s,95.69796889999998,95.69796889999998,,,96.2090446000002,s,1.0980918999994174,1.0,0.0,s,1,96.21343349999916,0.0004774999997607665,0.0004774999997607665,0.5796246999998402,96.79897220000021,0.5081670999989001,0.5081670999989001,0.5081670999989001,None,,,,,,,,,01,2025-08-21_14h09.00.014,controlStroop,2023.2.1,59.926278692197585,2025-08-21 14h09.11.562219 +0100,
68,0,68,0,96.81255939999937,,,,,,,,,,,,,,,,,96.80087149999963,69,red,red,1.0,m,96.81255939999937,96.81255939999937,,,97.37487929999952,m,1.0980918999994174,1.0,0.0,m,1,97.37905419999879,0.0004852999991271645,0.0004852999991271645,0.5357179000002361,97.92056839999896,0.5525985000003857,0.5525985000003857,0.5525985000003857,None,,,,,,,,,01,2025-08-21_14h09.00.014,controlStroop,2023.2.1,59.926278692197585,2025-08-21 14h09.11.562219 +0100,
69,0,69,0,97.9327433999988,,,,,,,,,,,,,,,,,97.9222751999987,70,yellow,yellow,1.0,s,97.9327433999988,97.9327433999988,99.03919680000035,99.03919680000035,99.0240730000005,nan,1.0980918999994174,0.0,0.0,None,0,99.02663939999911,0.0006126000007498078,0.0006126000007498078,0.045769599999403,99.09342649999962,,,,,,,,,,,,,01,2025-08-21_14h09.00.014,controlStroop,2023.2.1,59.926278692197585,2025-08-21 14h09.11.562219 +0100,
70,0,70,0,99.10916720000023,,,,,,,,,,,,,,,,,99.09518480000042,71,blue,blue,1.0,l,99.10916720000023,99.10916720000023,100.22246409999934,100.22246409999934,100.20693029999893,nan,1.0980918999994174,0.0,0.0,None,0,100.2103876000001,0.00041369999962626025,0.00041369999962626025,0.04545909999978903,100.27303399999983,,,,,,,,,,,,,01,2025-08-21_14h09.00.014,controlStroop,2023.2.1,59.926278692197585,2025-08-21 14h09.11.562219 +0100,
71,0,71,0,100.28772509999908,,,,,,,,,,,,,,,,,100.27478299999893,72,green,green,1.0,c,100.28772509999908,100.28772509999908,101.38896179999938,101.38896179999938,101.37367999999879,nan,1.0980918999994174,0.0,0.0,None,0,101.37841959999969,0.0006607000013900688,0.0006607000013900688,0.04394430000138527,101.44354720000047,,,,,,,,,,,,,01,2025-08-21_14h09.00.014,controlStroop,2023.2.1,59.926278692197585,2025-08-21 14h09.11.562219 +0100,
72,0,72,0,101.46039550000023,,,,,,,,,,,,,,,,,101.44537149999996,73,yellow,yellow,1.0,s,101.46039550000023,101.46039550000023,102.57188429999951,102.57188429999951,102.55667439999888,nan,1.0980918999994174,0.0,0.0,None,0,102.55898209999941,0.00041570000030333176,0.00041570000030333176,0.04684790000101202,102.62399519999963,,,,,,,,,,,,,01,2025-08-21_14h09.00.014,controlStroop,2023.2.1,59.926278692197585,2025-08-21 14h09.11.562219 +0100,
73,0,73,0,102.64040889999887,,,,,,,,,,,,,,,,,102.62575920000018,74,red,red,1.0,m,102.64040889999887,102.64040889999887,103.73896739999873,103.73896739999873,103.72355219999918,nan,1.0980918999994174,0.0,0.0,None,0,103.7264213999988,0.0005399000001489185,0.0005399000001489185,0.04592489999959071,103.79318719999901,,,,,,,,,,,,,01,2025-08-21_14h09.00.014,controlStroop,2023.2.1,59.926278692197585,2025-08-21 14h09.11.562219 +0100,
74,0,74,0,103.80711909999991,,,,,,,,,,,,,,,,,103.79502659999889,75,blue,blue,1.0,l,103.80711909999991,103.80711909999991,104.90559419999954,104.90559419999954,104.89013700000032,nan,1.0980918999994174,0.0,0.0,None,0,104.89351129999886,0.0004400999987410614,0.0004400999987410614,0.04572519999965152,104.95284600000014,,,,,,,,,,,,,01,2025-08-21_14h09.00.014,controlStroop,2023.2.1,59.926278692197585,2025-08-21 14h09.11.562219 +0100,
75,0,75,0,104.97073569999884,,,,,,,,,,,,,,,,,104.95489319999979,76,yellow,yellow,1.0,s,104.97073569999884,104.97073569999884,106.07205809999869,106.07205809999869,106.05707549999897,nan,1.0980918999994174,0.0,0.0,None,0,106.06049080000048,0.000593299999309238,0.000593299999309238,0.045003799999904004,106.12286119999953,,,,,,,,,,,,,01,2025-08-21_14h09.00.014,controlStroop,2023.2.1,59.926278692197585,2025-08-21 14h09.11.562219 +0100,
76,0,76,0,106.13395209999908,,,,,,,,,,,,,,,,,106.12457549999999,77,red,red,1.0,m,106.13395209999908,106.13395209999908,107.23878049999985,107.23878049999985,107.2233699999997,nan,1.0980918999994174,0.0,0.0,None,0,107.22596229999908,0.0005451000015455065,0.0005451000015455065,0.046070899999904213,107.29290099999889,,,,,,,,,,,,,01,2025-08-21_14h09.00.014,controlStroop,2023.2.1,59.926278692197585,2025-08-21 14h09.11.562219 +0100,
77,0,77,0,107.30818779999936,,,,,,,,,,,,,,,,,107.29480739999963,78,blue,blue,1.0,l,107.30818779999936,107.30818779999936,108.4052374999992,108.4052374999992,108.39025810000021,nan,1.0980918999994174,0.0,0.0,None,0,108.39341049999894,0.0006941999999980908,0.0006941999999980908,0.04560489999857964,108.45232620000024,,,,,,,,,,,,,01,2025-08-21_14h09.00.014,controlStroop,2023.2.1,59.926278692197585,2025-08-21 14h09.11.562219 +0100,
78,0,78,0,108.46293399999922,,,,,,,,,,,,,,,,,108.45411849999982,79,red,red,1.0,m,108.46293399999922,108.46293399999922,109.57169880000038,109.57169880000038,109.5562160999998,nan,1.0980918999994174,0.0,0.0,None,0,109.55909710000014,0.0005886999988433672,0.0005886999988433672,0.04608069999994768,109.62323599999945,,,,,,,,,,,,,01,2025-08-21_14h09.00.014,controlStroop,2023.2.1,59.926278692197585,2025-08-21 14h09.11.562219 +0100,
79,0,79,0,109.63584569999875,,,,,,,,,,,,,,,,,109.62504929999886,80,blue,blue,1.0,l,109.63584569999875,109.63584569999875,110.73845280000023,110.73845280000023,110.7236527999994,nan,1.0980918999994174,0.0,0.0,None,0,110.72667509999883,0.0005438999996840721,0.0005438999996840721,0.04551770000034594,110.7937267999987,,,,,,,,,,,,,01,2025-08-21_14h09.00.014,controlStroop,2023.2.1,59.926278692197585,2025-08-21 14h09.11.562219 +0100,
80,0,80,0,110.80999369999881,,,,,,,,,,,,,,,,,110.79554389999976,81,green,green,1.0,c,110.80999369999881,110.80999369999881,111.9222224999994,111.9222224999994,111.90631969999959,nan,1.0980918999994174,0.0,0.0,None,0,111.90876649999882,0.0005106999997224193,0.0005106999997224193,0.04664279999997234,111.97265080000034,,,,,,,,,,,,,01,2025-08-21_14h09.00.014,controlStroop,2023.2.1,59.926278692197585,2025-08-21 14h09.11.562219 +0100,
81,0,81,0,111.98644979999881,,,,,,,,,,,,,,,,,111.97520409999925,82,yellow,yellow,1.0,s,111.98644979999881,111.98644979999881,113.08827240000028,113.08827240000028,113.07332299999871,nan,1.0980918999994174,0.0,0.0,None,0,113.07658029999948,0.0006529999991471414,0.0006529999991471414,0.04510369999843533,113.1330125000004,,,,,,,,,,,,,01,2025-08-21_14h09.00.014,controlStroop,2023.2.1,59.926278692197585,2025-08-21 14h09.11.562219 +0100,
82,0,82,0,113.14603720000014,,,,,,,,,,,,,,,,,113.13472379999985,83,green,green,1.0,c,113.14603720000014,113.14603720000014,114.25479909999922,114.25479909999922,114.24025309999888,nan,1.0980918999994174,0.0,0.0,None,0,114.24338960000023,0.0005632000011246419,0.0005632000011246419,0.04500630000075034,114.30284419999953,,,,,,,,,,,,,01,2025-08-21_14h09.00.014,controlStroop,2023.2.1,59.926278692197585,2025-08-21 14h09.11.562219 +0100,
83,0,83,0,114.32364640000014,,,,,,,,,,,,,,,,,114.30494650000037,84,yellow,yellow,1.0,s,114.32364640000014,114.32364640000014,115.42127149999942,115.42127149999942,115.40564929999891,nan,1.0980918999994174,0.0,0.0,None,0,115.40786049999952,0.00044159999924886506,0.00044159999924886506,0.04724290000012843,115.47219229999973,,,,,,,,,,,,,01,2025-08-21_14h09.00.014,controlStroop,2023.2.1,59.926278692197585,2025-08-21 14h09.11.562219 +0100,
84,0,84,0,115.47932819999914,,,,,,,,,,,,,,,,,115.47288060000028,85,blue,blue,1.0,l,115.47932819999914,115.47932819999914,116.58816279999883,116.58816279999883,116.57308720000037,nan,1.0980918999994174,0.0,0.0,None,0,116.57602380000026,0.0005985000007058261,0.0005985000007058261,0.0455247000008967,116.6429764000004,,,,,,,,,,,,,01,2025-08-21_14h09.00.014,controlStroop,2023.2.1,59.926278692197585,2025-08-21 14h09.11.562219 +0100,
85,0,85,0,116.657083099999,,,,,,,,,,,,,,,,,116.6447221999988,86,red,red,1.0,m,116.657083099999,116.657083099999,117.75464979999924,117.75464979999924,117.73977029999878,nan,1.0980918999994174,0.0,0.0,None,0,117.7422759000001,0.0005197999998927116,0.0005197999998927116,0.04578919999948994,117.80278879999969,,,,,,,,,,,,,01,2025-08-21_14h09.00.014,controlStroop,2023.2.1,59.926278692197585,2025-08-21 14h09.11.562219 +0100,
86,0,86,0,117.81907259999934,,,,,,,,,,,,,,,,,117.80494120000003,87,blue,blue,1.0,l,117.81907259999934,117.81907259999934,118.92118409999966,118.92118409999966,118.90663589999895,nan,1.0980918999994174,0.0,0.0,None,0,118.9098658999992,0.0007171999986894662,0.0007171999986894662,0.045024999999441206,118.97326239999893,,,,,,,,,,,,,01,2025-08-21_14h09.00.014,controlStroop,2023.2.1,59.926278692197585,2025-08-21 14h09.11.562219 +0100,
87,0,87,0,118.98670309999943,,,,,,,,,,,,,,,,,118.97507199999927,88,green,green,1.0,c,118.98670309999943,118.98670309999943,120.08788370000002,120.08788370000002,120.07295580000027,nan,1.0980918999994174,0.0,0.0,None,0,120.07581570000002,0.0006290000001172302,0.0006290000001172302,0.045833199999833596,120.1430218000005,,,,,,,,,,,,,01,2025-08-21_14h09.00.014,controlStroop,2023.2.1,59.926278692197585,2025-08-21 14h09.11.562219 +0100,
88,0,88,0,120.15434219999952,,,,,,,,,,,,,,,,,120.14429120000023,89,red,red,1.0,m,120.15434219999952,120.15434219999952,121.25506469999891,121.25506469999891,121.23999860000004,nan,1.0980918999994174,0.0,0.0,None,0,121.24316840000029,0.0005752000015490921,0.0005752000015490921,0.04497880000053556,121.30333119999887,,,,,,,,,,,,,01,2025-08-21_14h09.00.014,controlStroop,2023.2.1,59.926278692197585,2025-08-21 14h09.11.562219 +0100,
89,0,89,0,121.31889819999924,,,,,,,,,,,,,,,,,121.30557919999956,90,yellow,yellow,1.0,s,121.31889819999924,121.31889819999924,122.42118239999945,122.42118239999945,122.40595889999895,nan,1.0980918999994174,0.0,0.0,None,0,122.40895040000032,0.00044770000022253953,0.00044770000022253953,0.045647000000826665,122.47262709999995,,,,,,,,,,,,,01,2025-08-21_14h09.00.014,controlStroop,2023.2.1,59.926278692197585,2025-08-21 14h09.11.562219 +0100,
90,0,90,0,122.484548299999,,,,,,,,,,,,,,,,,122.47428599999876,91,red,red,1.0,m,122.484548299999,122.484548299999,123.58780730000035,123.58780730000035,123.57247920000009,nan,1.0980918999994174,0.0,0.0,None,0,123.57472249999955,0.00046939999992900994,0.00046939999992900994,0.04647400000067137,123.64266419999876,,,,,,,,,,,,,01,2025-08-21_14h09.00.014,controlStroop,2023.2.1,59.926278692197585,2025-08-21 14h09.11.562219 +0100,
91,0,91,0,123.65564300000005,,,,,,,,,,,,,,,,,123.64442969999982,92,blue,blue,1.0,l,123.65564300000005,123.65564300000005,124.75436059999993,124.75436059999993,124.73950960000002,nan,1.0980918999994174,0.0,0.0,None,0,124.74269780000031,0.0007459000007656869,0.0007459000007656869,0.04534050000074785,124.8025775999995,,,,,,,,,,,,,01,2025-08-21_14h09.00.014,controlStroop,2023.2.1,59.926278692197585,2025-08-21 14h09.11.562219 +0100,
92,0,92,0,124.81504169999971,,,,,,,,,,,,,,,,,124.80455919999986,93,green,green,1.0,c,124.81504169999971,124.81504169999971,125.92109290000008,125.92109290000008,125.90573149999909,nan,1.0980918999994174,0.0,0.0,None,0,125.90834509999877,0.00048009999954956584,0.00048009999954956584,0.04633729999841307,125.97311780000018,,,,,,,,,,,,,01,2025-08-21_14h09.00.014,controlStroop,2023.2.1,59.926278692197585,2025-08-21 14h09.11.562219 +0100,
93,0,93,0,125.98469149999983,,,,,,,,,,,,,,,,,125.97480819999873,94,blue,blue,1.0,l,125.98469149999983,125.98469149999983,127.08741069999996,127.08741069999996,127.07244209999953,nan,1.0980918999994174,0.0,0.0,None,0,127.07513169999947,0.00044010000056005083,0.00044010000056005083,0.04628779999984545,127.14287609999883,,,,,,,,,,,,,01,2025-08-21_14h09.00.014,controlStroop,2023.2.1,59.926278692197585,2025-08-21 14h09.11.562219 +0100,
94,0,94,0,127.16659309999886,,,,,,,,,,,,,,,,,127.14469869999994,95,yellow,yellow,1.0,s,127.16659309999886,127.16659309999886,128.27055409999957,128.27055409999957,128.25478649999968,nan,1.0980918999994174,0.0,0.0,None,0,128.25641539999924,0.0003463000011834083,0.0003463000011834083,0.04730800000106683,128.3218992000002,,,,,,,,,,,,,01,2025-08-21_14h09.00.014,controlStroop,2023.2.1,59.926278692197585,2025-08-21 14h09.11.562219 +0100,
95,0,95,0,128.32987669999966,,,,,,,,,,,,,,,,,128.32270599999902,96,blue,blue,1.0,l,128.32987669999966,128.32987669999966,129.4378070999992,129.4378070999992,129.42250669999885,nan,1.0980918999994174,0.0,0.0,None,0,129.42578250000042,0.0008586000003560912,0.0008586000003560912,0.04519599999912316,129.48279059999913,,,,,,,,,,,,,01,2025-08-21_14h09.00.014,controlStroop,2023.2.1,59.926278692197585,2025-08-21 14h09.11.562219 +0100,
96,0,96,0,129.49666780000007,,,,,,,,,,,,,,,,,129.48466139999982,97,red,red,1.0,m,129.49666780000007,129.49666780000007,130.6040422999995,130.6040422999995,130.58923270000014,nan,1.0980918999994174,0.0,0.0,None,0,130.59178710000015,0.0006128000004537171,0.0006128000004537171,0.04607890000079351,130.6526030999994,,,,,,,,,,,,,01,2025-08-21_14h09.00.014,controlStroop,2023.2.1,59.926278692197585,2025-08-21 14h09.11.562219 +0100,
97,0,97,0,130.66937139999936,,,,,,,,,,,,,,,,,130.65469610000036,98,yellow,yellow,1.0,s,130.66937139999936,130.66937139999936,131.77096840000013,131.77096840000013,131.75571539999873,nan,1.0980918999994174,0.0,0.0,None,0,131.75895409999976,0.000729900000806083,0.000729900000806083,0.0452874000002339,131.8234111999991,,,,,,,,,,,,,01,2025-08-21_14h09.00.014,controlStroop,2023.2.1,59.926278692197585,2025-08-21 14h09.11.562219 +0100,
98,0,98,0,131.83654529999876,,,,,,,,,,,,,,,,,131.82540580000023,99,green,green,1.0,c,131.83654529999876,131.83654529999876,132.93749190000017,132.93749190000017,132.9221407999994,nan,1.0980918999994174,0.0,0.0,None,0,132.92534390000037,0.0006947999991098186,0.0006947999991098186,0.0454554999996617,132.98296420000042,,,,,,,,,,,,,01,2025-08-21_14h09.00.014,controlStroop,2023.2.1,59.926278692197585,2025-08-21 14h09.11.562219 +0100,
99,0,99,0,132.9988629999989,,,,,,,,,,,,,,,,,132.98435710000012,100,yellow,yellow,1.0,s,132.9988629999989,132.9988629999989,134.10393289999956,134.10393289999956,134.08878469999945,nan,1.0980918999994174,0.0,0.0,None,0,134.09188929999982,0.0008056000006035902,0.0008056000006035902,0.045271900000443566,134.1527016,,,,,,,,,,,,,01,2025-08-21_14h09.00.014,controlStroop,2023.2.1,59.926278692197585,2025-08-21 14h09.11.562219 +0100,
100,0,100,0,134.16620799999873,,,,,,,,,,,,,,,,,134.1546569000002,101,red,red,1.0,m,134.16620799999873,134.16620799999873,135.27046289999998,135.27046289999998,135.2556242999999,nan,1.0980918999994174,0.0,0.0,None,0,135.2596083999997,0.0007771000000502681,0.0007771000000502681,0.04453550000107498,135.32334929999888,,,,,,,,,,,,,01,2025-08-21_14h09.00.014,controlStroop,2023.2.1,59.926278692197585,2025-08-21 14h09.11.562219 +0100,
101,0,101,0,135.3409948999997,,,,,,,,,,,,,,,,,135.3252451999997,102,yellow,yellow,1.0,s,135.3409948999997,135.3409948999997,136.45384579999882,136.45384579999882,136.43883110000024,nan,1.0980918999994174,0.0,0.0,None,0,136.44205499999953,0.0006940000002941815,0.0006940000002941815,0.045211900000140304,136.5030186999993,,,,,,,,,,,,,01,2025-08-21_14h09.00.014,controlStroop,2023.2.1,59.926278692197585,2025-08-21 14h09.11.562219 +0100,
102,0,102,0,136.51663609999923,,,,,,,,,,,,,,,,,136.50501210000039,103,red,red,1.0,m,136.51663609999923,136.51663609999923,137.6200233999989,137.6200233999989,137.60480909999933,nan,1.0980918999994174,0.0,0.0,None,0,137.6081420999999,0.0006173000001581386,0.0006173000001581386,0.04556629999933648,137.67247010000028,,,,,,,,,,,,,01,2025-08-21_14h09.00.014,controlStroop,2023.2.1,59.926278692197585,2025-08-21 14h09.11.562219 +0100,
103,0,103,0,137.68270479999956,,,,,,,,,,,,,,,,,137.67343749999964,104,green,green,1.0,c,137.68270479999956,137.68270479999956,138.78688839999995,138.78688839999995,138.7723294999996,nan,1.0980918999994174,0.0,0.0,None,0,138.77631479999945,0.00061690000075032,0.00061690000075032,0.04437289999987115,138.8327892999987,,,,,,,,,,,,,01,2025-08-21_14h09.00.014,controlStroop,2023.2.1,59.926278692197585,2025-08-21 14h09.11.562219 +0100,
104,0,104,0,138.84783140000036,,,,,,,,,,,,,,,,,138.83579759999884,105,blue,blue,1.0,l,138.84783140000036,138.84783140000036,139.95366619999913,139.95366619999913,139.93818889999966,nan,1.0980918999994174,0.0,0.0,None,0,139.9412616999998,0.0006905999998707557,0.0006905999998707557,0.04574699999830045,140.00282089999928,,,,,,,,,,,,,01,2025-08-21_14h09.00.014,controlStroop,2023.2.1,59.926278692197585,2025-08-21 14h09.11.562219 +0100,
105,0,105,0,140.01791570000023,,,,,,,,,,,,,,,,,140.00458439999966,106,red,red,1.0,m,140.01791570000023,140.01791570000023,141.12011869999878,141.12011869999878,141.10479159999886,nan,1.0980918999994174,0.0,0.0,None,0,141.1069668,0.000532900001417147,0.000532900001417147,0.04615180000109831,141.17307210000035,,,,,,,,,,,,,01,2025-08-21_14h09.00.014,controlStroop,2023.2.1,59.926278692197585,2025-08-21 14h09.11.562219 +0100,
106,0,106,0,141.18497380000008,,,,,,,,,,,,,,,,,141.174837999999,107,green,green,1.0,c,141.18497380000008,141.18497380000008,,,141.75525299999936,c,1.0980918999994174,1.0,0.0,c,1,141.75802440000007,0.00045280000085767824,0.00045280000085767824,0.5230370000008406,142.2858268,0.5659964000005857,0.5659964000005857,0.5659964000005857,None,,,,,,,,,01,2025-08-21_14h09.00.014,controlStroop,2023.2.1,59.926278692197585,2025-08-21 14h09.11.562219 +0100,
107,0,107,0,142.30364679999911,,,,,,,,,,,,,,,,,142.28743810000014,108,blue,blue,1.0,l,142.30364679999911,142.30364679999911,,,142.8892498999994,l,1.0980918999994174,1.0,0.0,l,1,142.8942367999989,0.0006386999993992504,0.0006386999993992504,0.5198815999992803,143.4193680999997,0.5682006999995792,0.5682006999995792,0.5682006999995792,None,,,,,,,,,01,2025-08-21_14h09.00.014,controlStroop,2023.2.1,59.926278692197585,2025-08-21 14h09.11.562219 +0100,
108,0,108,0,143.43261340000026,,,,,,,,,,,,,,,,,143.4206493999991,109,yellow,yellow,1.0,s,143.43261340000026,143.43261340000026,,,144.00546249999934,s,1.0980918999994174,1.0,0.0,s,1,144.00946490000024,0.0003920999988622498,0.0003920999988622498,0.5218341999989207,144.53762409999945,0.5656144000004133,0.5656144000004133,0.5656144000004133,None,,,,,,,,,01,2025-08-21_14h09.00.014,controlStroop,2023.2.1,59.926278692197585,2025-08-21 14h09.11.562219 +0100,
109,0,109,0,144.55201039999884,,,,,,,,,,,,,,,,,144.53927320000003,110,green,green,1.0,c,144.55201039999884,144.55201039999884,,,145.05524379999952,c,1.0980918999994174,1.0,0.0,c,1,145.0593719999997,0.000470199998744647,0.000470199998744647,0.596947199999704,145.6617556000001,0.48988420000023325,0.48988420000023325,0.48988420000023325,None,,,,,,,,,01,2025-08-21_14h09.00.014,controlStroop,2023.2.1,59.926278692197585,2025-08-21 14h09.11.562219 +0100,
110,0,110,0,145.67642859999978,,,,,,,,,,,,,,,,,145.6629968999987,111,red,red,1.0,m,145.67642859999978,145.67642859999978,,,146.1560497999999,m,1.0980918999994174,1.0,0.0,m,1,146.16252460000032,0.0006609000010939781,0.0006609000010939781,0.6210258000010072,146.7849088999992,0.4669126000007964,0.4669126000007964,0.4669126000007964,None,,,,,,,,,01,2025-08-21_14h09.00.014,controlStroop,2023.2.1,59.926278692197585,2025-08-21 14h09.11.562219 +0100,
111,0,111,0,146.79721549999886,,,,,,,,,,,,,,,,,146.78655379999873,112,green,green,1.0,c,146.79721549999886,146.79721549999886,,,147.35472879999907,c,1.0980918999994174,1.0,0.0,c,1,147.35787829999936,0.0003777999991143588,0.0003777999991143588,0.5399776999984169,147.90351889999874,0.5483878000013647,0.5483878000013647,0.5483878000013647,None,,,,,,,,,01,2025-08-21_14h09.00.014,controlStroop,2023.2.1,59.926278692197585,2025-08-21 14h09.11.562219 +0100,
112,0,112,0,147.914300299999,,,,,,,,,,,,,,,,,147.90488109999933,113,yellow,yellow,1.0,s,147.914300299999,147.914300299999,,,148.47272919999887,s,1.0980918999994174,1.0,0.0,s,1,148.47719069999948,0.0007162999991123797,0.0007162999991123797,0.5367697999990924,149.0187776999992,0.5511738000004698,0.5511738000004698,0.5511738000004698,None,,,,,,,,,01,2025-08-21_14h09.00.014,controlStroop,2023.2.1,59.926278692197585,2025-08-21 14h09.11.562219 +0100,
113,0,113,0,149.0315202999991,,,,,,,,,,,,,,,,,149.02006289999917,114,green,green,1.0,c,149.0315202999991,149.0315202999991,,,149.50606599999992,c,1.0980918999994174,1.0,0.0,c,1,149.50964939999903,0.00040380000064033084,0.00040380000064033084,0.6176503000006051,150.13228609999896,0.47005690000150935,0.47005690000150935,0.47005690000150935,None,,,,,,,,,01,2025-08-21_14h09.00.014,controlStroop,2023.2.1,59.926278692197585,2025-08-21 14h09.11.562219 +0100,
114,0,114,0,150.14673589999984,,,,,,,,,,,,,,,,,150.13361369999984,115,blue,blue,1.0,l,150.14673589999984,150.14673589999984,,,150.67272669999875,l,1.0980918999994174,1.0,0.0,l,1,150.67624609999984,0.0004741000011563301,0.0004741000011563301,0.5657907000004343,151.2490629999993,0.5219295000006241,0.5219295000006241,0.5219295000006241,None,,,,,,,,,01,2025-08-21_14h09.00.014,controlStroop,2023.2.1,59.926278692197585,2025-08-21 14h09.11.562219 +0100,
115,0,115,0,151.26767909999944,,,,,,,,,,,,,,,,,151.2508146,116,red,red,1.0,m,151.26767909999944,151.26767909999944,,,151.7397119999987,m,1.0980918999994174,1.0,0.0,m,1,151.74552719999883,0.0008708000004844507,0.0008708000004844507,0.6295742000002065,152.38146039999992,0.45892189999904076,0.45892189999904076,0.45892189999904076,None,,,,,,,,,01,2025-08-21_14h09.00.014,controlStroop,2023.2.1,59.926278692197585,2025-08-21 14h09.11.562219 +0100,
116,0,116,0,152.40424089999942,,,,,,,,,,,,,,,,,152.38311040000008,117,yellow,yellow,1.0,s,152.40424089999942,152.40424089999942,,,152.88881049999873,s,1.0980918999994174,1.0,0.0,s,1,152.8951502,0.000689199998305412,0.000689199998305412,0.6093725999999151,153.5096013000002,0.477820400001292,0.477820400001292,0.477820400001292,None,,,,,,,,,01,2025-08-21_14h09.00.014,controlStroop,2023.2.1,59.926278692197585,2025-08-21 14h09.11.562219 +0100,
117,0,117,0,153.5273804999997,,,,,,,,,,,,,,,,,153.51142230000005,118,green,green,1.0,c,153.5273804999997,153.5273804999997,,,153.9711537000003,c,1.0980918999994174,1.0,0.0,c,1,153.97385649999887,0.00040269999954034574,0.00040269999954034574,0.6576492999993206,154.63787579999916,0.43020269999942684,0.43020269999942684,0.43020269999942684,None,,,,,,,,,01,2025-08-21_14h09.00.014,controlStroop,2023.2.1,59.926278692197585,2025-08-21 14h09.11.562219 +0100,
118,0,118,0,154.65265989999898,,,,,,,,,,,,,,,,,154.6384648000003,119,red,red,1.0,m,154.65265989999898,154.65265989999898,,,155.08798659999957,m,1.0980918999994174,1.0,0.0,m,1,155.09067499999946,0.00038470000072265975,0.00038470000072265975,0.6684447000006912,155.7704765999988,0.4186599999993632,0.4186599999993632,0.4186599999993632,None,,,,,,,,,01,2025-08-21_14h09.00.014,controlStroop,2023.2.1,59.926278692197585,2025-08-21 14h09.11.562219 +0100,
119,0,119,0,155.78595109999878,,,,,,,,,,,,,,,,,155.77218129999892,120,yellow,yellow,1.0,s,155.78595109999878,155.78595109999878,,,156.23776519999956,s,1.0980918999994174,1.0,0.0,s,1,156.24135829999977,0.00048240000069199596,0.00048240000069199596,0.6454503000004479,156.89247609999984,0.4422316000000137,0.4422316000000137,0.4422316000000137,None,,,,,,,,,01,2025-08-21_14h09.00.014,controlStroop,2023.2.1,59.926278692197585,2025-08-21 14h09.11.562219 +0100,
120,0,120,0,156.90550119999898,,,,,,,,,,,,,,,,,156.89435260000027,121,green,green,1.0,c,156.90550119999898,156.90550119999898,,,157.37206289999995,c,1.0980918999994174,1.0,0.0,c,1,157.37659429999985,0.0003742000008060131,0.0003742000008060131,0.6358730000010837,158.0178821999998,0.45139129999915895,0.45139129999915895,0.45139129999915895,None,,,,,,,,,01,2025-08-21_14h09.00.014,controlStroop,2023.2.1,59.926278692197585,2025-08-21 14h09.11.562219 +0100,
121,0,121,0,158.03112200000032,,,,,,,,,,,,,,,,,158.01974659999905,122,red,red,1.0,m,158.03112200000032,158.03112200000032,159.13624159999927,159.13624159999927,159.12084779999896,nan,1.0980918999994174,0.0,0.0,None,0,159.12356460000046,0.0006712000013067154,0.0006712000013067154,0.04577460000109568,159.1827749999993,,,,,,,,,,,,,01,2025-08-21_14h09.00.014,controlStroop,2023.2.1,59.926278692197585,2025-08-21 14h09.11.562219 +0100,
122,0,122,0,159.2015266999988,,,,,,,,,,,,,,,,,159.18486510000002,123,yellow,yellow,1.0,s,159.2015266999988,159.2015266999988,160.35276820000036,160.35276820000036,160.337040299999,nan,1.0980918999994174,0.0,0.0,None,0,160.33978799999932,0.0006877000014355872,0.0006877000014355872,0.06860349999988102,160.4092475999987,,,,,,,,,,,,,01,2025-08-21_14h09.00.014,controlStroop,2023.2.1,59.926278692197585,2025-08-21 14h09.11.562219 +0100,
123,0,123,0,160.4219452999987,,,,,,,,,,,,,,,,,160.41035899999952,124,blue,blue,1.0,l,160.4219452999987,160.4219452999987,161.5238935999987,161.5238935999987,161.5077636999995,nan,1.0980918999994174,0.0,0.0,None,0,161.5091941999999,0.0002444000001560198,0.0002444000001560198,0.04792939999970258,161.57313579999936,,,,,,,,,,,,,01,2025-08-21_14h09.00.014,controlStroop,2023.2.1,59.926278692197585,2025-08-21 14h09.11.562219 +0100,
124,0,124,0,161.58674509999946,,,,,,,,,,,,,,,,,161.5744928999993,125,red,red,1.0,m,161.58674509999946,161.58674509999946,162.6856654000003,162.6856654000003,162.6703108999991,nan,1.0980918999994174,0.0,0.0,None,0,162.6736724000002,0.0005836999989696778,0.0005836999989696778,0.04545929999949294,162.73261699999966,,,,,,,,,,,,,01,2025-08-21_14h09.00.014,controlStroop,2023.2.1,59.926278692197585,2025-08-21 14h09.11.562219 +0100,
125,0,125,0,162.74418999999943,,,,,,,,,,,,,,,,,162.734140999999,126,blue,blue,1.0,l,162.74418999999943,162.74418999999943,163.85219809999944,163.85219809999944,163.8371858999999,nan,1.0980918999994174,0.0,0.0,None,0,163.84027179999975,0.0006319999993138481,0.0006319999993138481,0.04525429999921471,163.90274429999954,,,,,,,,,,,,,01,2025-08-21_14h09.00.014,controlStroop,2023.2.1,59.926278692197585,2025-08-21 14h09.11.562219 +0100,
126,0,126,0,163.91282820000015,,,,,,,,,,,,,,,,,163.90382209999916,127,red,red,1.0,m,163.91282820000015,163.91282820000015,165.0189395999987,165.0189395999987,165.0033672999998,nan,1.0980918999994174,0.0,0.0,None,0,165.00510349999968,0.0003488000002107583,0.0003488000002107583,0.04693260000021837,165.06193770000027,,,,,,,,,,,,,01,2025-08-21_14h09.00.014,controlStroop,2023.2.1,59.926278692197585,2025-08-21 14h09.11.562219 +0100,
127,0,127,0,165.0688656000002,,,,,,,,,,,,,,,,,165.06263819999913,128,blue,blue,1.0,l,165.0688656000002,165.0688656000002,166.1690237999992,166.1690237999992,166.15384359999916,nan,1.0980918999994174,0.0,0.0,None,0,166.1572111000005,0.0006212000007508323,0.0006212000007508323,0.0453311000001122,166.2228715000001,,,,,,,,,,,,,01,2025-08-21_14h09.00.014,controlStroop,2023.2.1,59.926278692197585,2025-08-21 14h09.11.562219 +0100,
128,0,128,0,166.23909129999993,,,,,,,,,,,,,,,,,166.22455359999913,129,red,red,1.0,m,166.23909129999993,166.23909129999993,167.35206800000014,167.35206800000014,167.3375006999995,nan,1.0980918999994174,0.0,0.0,None,0,167.3409071999995,0.0005894000005355338,0.0005894000005355338,0.045046999999613035,167.40323050000006,,,,,,,,,,,,,01,2025-08-21_14h09.00.014,controlStroop,2023.2.1,59.926278692197585,2025-08-21 14h09.11.562219 +0100,
129,0,129,0,167.41732989999946,,,,,,,,,,,,,,,,,167.40473639999982,130,green,green,1.0,c,167.41732989999946,167.41732989999946,,,167.95616039999913,c,1.0980918999994174,1.0,0.0,c,1,167.96169269999882,0.0005848000000696629,0.0005848000000696629,0.5513574999986304,168.51807650000046,0.5356222999998863,0.5356222999998863,0.5356222999998863,None,,,,,,,,,01,2025-08-21_14h09.00.014,controlStroop,2023.2.1,59.926278692197585,2025-08-21 14h09.11.562219 +0100,
130,0,130,0,168.53037409999888,,,,,,,,,,,,,,,,,168.5197790000002,131,yellow,yellow,1.0,s,168.53037409999888,168.53037409999888,,,168.9714055000004,s,1.0980918999994174,1.0,0.0,s,1,168.9757539000002,0.0005617999995592982,0.0005617999995592982,0.6596786999998585,169.64087689999906,0.42770930000006047,0.42770930000006047,0.42770930000006047,None,,,,,,,,,01,2025-08-21_14h09.00.014,controlStroop,2023.2.1,59.926278692197585,2025-08-21 14h09.11.562219 +0100,
131,0,131,0,169.65304529999958,,,,,,,,,,,,,,,,,169.642272699999,132,red,red,1.0,m,169.65304529999958,169.65304529999958,,,170.12089949999972,m,1.0980918999994174,1.0,0.0,m,1,170.12539040000047,0.000817599999209051,0.000817599999209051,0.6262912999991386,170.75763729999926,0.46224160000019765,0.46224160000019765,0.46224160000019765,None,,,,,,,,,01,2025-08-21_14h09.00.014,controlStroop,2023.2.1,59.926278692197585,2025-08-21 14h09.11.562219 +0100,
132,0,132,0,170.77426689999993,,,,,,,,,,,,,,,,,170.75943949999964,133,green,green,1.0,c,170.77426689999993,170.77426689999993,,,171.2382751999994,c,1.0980918999994174,1.0,0.0,c,1,171.2437732999988,0.0007490000007237541,0.0007490000007237541,0.6285497000008036,171.8785124999995,0.4590558999989298,0.4590558999989298,0.4590558999989298,None,,,,,,,,,01,2025-08-21_14h09.00.014,controlStroop,2023.2.1,59.926278692197585,2025-08-21 14h09.11.562219 +0100,
133,0,133,0,171.8909437000002,,,,,,,,,,,,,,,,,171.88028739999936,134,red,red,1.0,m,171.8909437000002,171.8909437000002,,,172.42098199999964,m,1.0980918999994174,1.0,0.0,m,1,172.42601329999889,0.00047679999988758937,0.00047679999988758937,0.5639062999998714,172.99542289999954,0.5246447999998054,0.5246447999998054,0.5246447999998054,None,,,,,,,,,01,2025-08-21_14h09.00.014,controlStroop,2023.2.1,59.926278692197585,2025-08-21 14h09.11.562219 +0100,
134,0,134,0,173.00664030000007,,,,,,,,,,,,,,,,,172.99694420000014,135,green,green,1.0,c,173.00664030000007,173.00664030000007,,,173.4717112999988,c,1.0980918999994174,1.0,0.0,c,1,173.4763770999998,0.0005595999991783174,0.0005595999991783174,0.6257518999991589,174.1078495999991,0.46196969999982684,0.46196969999982684,0.46196969999982684,None,,,,,,,,,01,2025-08-21_14h09.00.014,controlStroop,2023.2.1,59.926278692197585,2025-08-21 14h09.11.562219 +0100,
135,0,135,0,174.12014719999934,,,,,,,,,,,,,,,,,174.1092979999994,136,blue,blue,1.0,l,174.12014719999934,174.12014719999934,,,174.55274409999947,l,1.0980918999994174,1.0,0.0,l,1,174.55607749999945,0.00034729999970295466,0.00034729999970295466,0.6627160999996704,175.2355590999996,0.4243794000012713,0.4243794000012713,0.4243794000012713,None,,,,,,,,,01,2025-08-21_14h09.00.014,controlStroop,2023.2.1,59.926278692197585,2025-08-21 14h09.11.562219 +0100,
136,0,136,0,175.251634799999,,,,,,,,,,,,,,,,,175.2365238000002,137,green,green,1.0,c,175.251634799999,175.251634799999,,,175.67100690000007,c,1.0980918999994174,1.0,0.0,c,1,175.6765521999987,0.0007245000015245751,0.0007245000015245751,0.681246000000101,176.3634877000004,0.4065943999994488,0.4065943999994488,0.4065943999994488,None,,,,,,,,,01,2025-08-21_14h09.00.014,controlStroop,2023.2.1,59.926278692197585,2025-08-21 14h09.11.562219 +0100,
137,0,137,0,176.37812139999915,,,,,,,,,,,,,,,,,176.36510590000034,138,red,red,1.0,m,176.37812139999915,176.37812139999915,,,176.85397980000016,m,1.0980918999994174,1.0,0.0,m,1,176.85814000000028,0.0005227000001468696,0.0005227000001468696,0.6230826999999408,177.48703569999998,0.46375330000046233,0.46375330000046233,0.46375330000046233,None,,,,,,,,,01,2025-08-21_14h09.00.014,controlStroop,2023.2.1,59.926278692197585,2025-08-21 14h09.11.562219 +0100,
138,0,138,0,177.4992657999992,,,,,,,,,,,,,,,,,177.48883860000024,139,green,green,1.0,c,177.4992657999992,177.4992657999992,,,178.02158489999965,c,1.0980918999994174,1.0,0.0,c,1,178.0256059000003,0.0005529000009119045,0.0005529000009119045,0.574359899999763,178.60564329999943,0.5153676999998424,0.5153676999998424,0.5153676999998424,None,,,,,,,,,01,2025-08-21_14h09.00.014,controlStroop,2023.2.1,59.926278692197585,2025-08-21 14h09.11.562219 +0100,
139,0,139,0,178.6190461999995,,,,,,,,,,,,,,,,,178.6075394999989,140,yellow,yellow,1.0,s,178.6190461999995,178.6190461999995,,,179.33712879999985,s,1.0980918999994174,1.0,0.0,s,1,179.34056819999932,0.0005185999998502666,0.0005185999998502666,0.37964109999848006,179.72615609999957,0.7096851999995124,0.7096851999995124,0.7096851999995124,None,,,,,,,,,01,2025-08-21_14h09.00.014,controlStroop,2023.2.1,59.926278692197585,2025-08-21 14h09.11.562219 +0100,
140,0,140,0,179.74022119999972,,,,,,,,,,,,,,,,,179.72778639999888,141,blue,blue,1.0,l,179.74022119999972,179.74022119999972,,,180.32007519999934,l,1.0980918999994174,1.0,0.0,l,1,180.32477279999875,0.0004631000010704156,0.0004631000010704156,0.5231137000009767,180.85449469999912,0.5655874999993102,0.5655874999993102,0.5655874999993102,None,,,,,,,,,01,2025-08-21_14h09.00.014,controlStroop,2023.2.1,59.926278692197585,2025-08-21 14h09.11.562219 +0100,
141,0,141,0,180.87245450000046,,,,,,,,,,,,,,,,,180.85627419999946,142,green,green,1.0,c,180.87245450000046,180.87245450000046,,,181.2374638000001,c,1.0980918999994174,1.0,0.0,c,1,181.24321919999966,0.0006069999999454012,0.0006069999999454012,0.7371548999999504,181.98544049999873,0.35060189999967406,0.35060189999967406,0.35060189999967406,None,,,,,,,,,01,2025-08-21_14h09.00.014,controlStroop,2023.2.1,59.926278692197585,2025-08-21 14h09.11.562219 +0100,
142,0,142,0,181.996226199999,,,,,,,,,,,,,,,,,181.9868150000002,143,red,red,1.0,m,181.996226199999,181.996226199999,,,182.3875621999996,m,1.0980918999994174,1.0,0.0,m,1,182.39195560000007,0.0005287999993015546,0.0005287999993015546,0.6991130999995221,183.0970832999992,0.3884478999989369,0.3884478999989369,0.3884478999989369,None,,,,,,,,,01,2025-08-21_14h09.00.014,controlStroop,2023.2.1,59.926278692197585,2025-08-21 14h09.11.562219 +0100,
143,0,143,0,183.10949169999913,,,,,,,,,,,,,,,,,183.0988430999987,144,green,green,1.0,c,183.10949169999913,183.10949169999913,,,183.6039041999993,c,1.0980918999994174,1.0,0.0,c,1,183.60929939999914,0.0006680000005871989,0.0006680000005871989,0.5971035000002303,184.21197089999987,0.4914613000000827,0.4914613000000827,0.4914613000000827,None,,,,,,,,,01,2025-08-21_14h09.00.014,controlStroop,2023.2.1,59.926278692197585,2025-08-21 14h09.11.562219 +0100,
144,0,144,0,184.2279884999989,,,,,,,,,,,,,,,,,184.21390529999917,145,blue,blue,1.0,l,184.2279884999989,184.2279884999989,,,184.73674930000016,l,1.0980918999994174,1.0,0.0,l,1,184.7406233999991,0.00035519999983080197,0.00035519999983080197,0.5962842000008095,185.34302559999924,0.49179739999999583,0.49179739999999583,0.49179739999999583,None,,,,,,,,,01,2025-08-21_14h09.00.014,controlStroop,2023.2.1,59.926278692197585,2025-08-21 14h09.11.562219 +0100,
145,0,145,0,185.35616200000004,,,,,,,,,,,,,,,,,185.34450819999984,146,red,red,1.0,m,185.35616200000004,185.35616200000004,,,185.85381039999993,m,1.0980918999994174,1.0,0.0,m,1,185.85806869999942,0.0007463000001735054,0.0007463000001735054,0.59666180000022,186.4599273999993,0.4926090999997541,0.4926090999997541,0.4926090999997541,None,,,,,,,,,01,2025-08-21_14h09.00.014,controlStroop,2023.2.1,59.926278692197585,2025-08-21 14h09.11.562219 +0100,
146,0,146,0,186.47403789999953,,,,,,,,,,,,,,,,,186.4612863000002,147,yellow,yellow,1.0,s,186.47403789999953,186.47403789999953,,,186.93732359999922,s,1.0980918999994174,1.0,0.0,s,1,186.94218600000022,0.0006210999999893829,0.0006210999999893829,0.6306094999999914,187.5783649999994,0.45714199999929406,0.45714199999929406,0.45714199999929406,None,,,,,,,,,01,2025-08-21_14h09.00.014,controlStroop,2023.2.1,59.926278692197585,2025-08-21 14h09.11.562219 +0100,
147,0,147,0,187.58971670000028,,,,,,,,,,,,,,,,,187.57985449999978,148,red,red,1.0,m,187.58971670000028,187.58971670000028,,,188.153924799999,m,1.0980918999994174,1.0,0.0,m,1,188.15865809999923,0.0006666999997833045,0.0006666999997833045,0.537450899999385,188.7031279999992,0.5485481000014261,0.5485481000014261,0.5485481000014261,None,,,,,,,,,01,2025-08-21_14h09.00.014,controlStroop,2023.2.1,59.926278692197585,2025-08-21 14h09.11.562219 +0100,
148,0,148,0,188.7172283,,,,,,,,,,,,,,,,,188.7040247999994,149,yellow,yellow,1.0,s,188.7172283,188.7172283,,,189.21919940000043,s,1.0980918999994174,1.0,0.0,s,1,189.22296280000046,0.0005653999996866332,0.0005653999996866332,0.5910812999991322,189.82029990000046,0.4954723000009835,0.4954723000009835,0.4954723000009835,None,,,,,,,,,01,2025-08-21_14h09.00.014,controlStroop,2023.2.1,59.926278692197585,2025-08-21 14h09.11.562219 +0100,
149,0,149,0,189.83399250000002,,,,,,,,,,,,,,,,,189.82109599999967,150,red,red,1.0,m,189.83399250000002,189.83399250000002,,,190.3360722999987,m,1.0980918999994174,1.0,0.0,m,1,190.34069049999925,0.0006049000003258698,0.0006049000003258698,0.5930339000005915,190.9382515999987,0.4954070999992837,0.4954070999992837,0.4954070999992837,None,,,,,,,,,01,2025-08-21_14h09.00.014,controlStroop,2023.2.1,59.926278692197585,2025-08-21 14h09.11.562219 +0100,
150,0,150,0,190.95185479999964,,,,,,,,,,,,,,,,,190.93957369999953,151,yellow,yellow,1.0,s,190.95185479999964,190.95185479999964,,,191.38592719999906,c,1.0980918999994174,0.0,0.0,c,0,191.39044169999943,0.0006216000001586508,0.0006216000001586508,0.6635131999992154,192.06783619999987,0.42238320000069507,,0.42238320000069507,None,,,,,,,,,01,2025-08-21_14h09.00.014,controlStroop,2023.2.1,59.926278692197585,2025-08-21 14h09.11.562219 +0100,
151,0,151,0,192.08396150000044,,,,,,,,,,,,,,,,,192.06905469999947,152,green,green,1.0,c,192.08396150000044,192.08396150000044,,,192.61968179999894,c,1.0980918999994174,1.0,0.0,c,1,192.62481370000023,0.0008548999994673068,0.0008548999994673068,0.5558297999996284,193.1849628,0.5308715999999549,0.5308715999999549,0.5308715999999549,None,,,,,,,,,01,2025-08-21_14h09.00.014,controlStroop,2023.2.1,59.926278692197585,2025-08-21 14h09.11.562219 +0100,
152,0,152,0,193.19556159999956,,,,,,,,,,,,,,,,,193.18616789999942,153,blue,blue,1.0,l,193.19556159999956,193.19556159999956,,,193.66846339999938,l,1.0980918999994174,1.0,0.0,l,1,193.67410459999883,0.0006154000002425164,0.0006154000002425164,0.6265548999999737,194.30554699999993,0.46322950000103447,0.46322950000103447,0.46322950000103447,None,,,,,,,,,01,2025-08-21_14h09.00.014,controlStroop,2023.2.1,59.926278692197585,2025-08-21 14h09.11.562219 +0100,
153,0,153,0,194.32080180000048,,,,,,,,,,,,,,,,,194.30716570000004,154,green,green,1.0,c,194.32080180000048,194.32080180000048,,,194.8026119999995,c,1.0980918999994174,1.0,0.0,c,1,194.81170819999898,0.001185700000860379,0.001185700000860379,0.6077381000013702,195.42361179999898,0.4794136000000435,0.4794136000000435,0.4794136000000435,None,,,,,,,,,01,2025-08-21_14h09.00.014,controlStroop,2023.2.1,59.926278692197585,2025-08-21 14h09.11.562219 +0100,
154,0,154,0,195.43369840000014,,,,,,,,,,,,,,,,,195.4247895999997,155,red,red,1.0,m,195.43369840000014,195.43369840000014,,,195.91971219999868,m,1.0980918999994174,1.0,0.0,m,1,195.92357660000016,0.0004683999995904742,0.0004683999995904742,0.6045914999995148,196.53409350000038,0.48366470000109985,0.48366470000109985,0.48366470000109985,None,,,,,,,,,01,2025-08-21_14h09.00.014,controlStroop,2023.2.1,59.926278692197585,2025-08-21 14h09.11.562219 +0100,
155,0,155,0,196.54926419999902,,,,,,,,,,,,,,,,,196.53564509999887,156,blue,blue,1.0,l,196.54926419999902,196.54926419999902,,,197.03674949999913,l,1.0980918999994174,1.0,0.0,l,1,197.0419299999994,0.0006620999993174337,0.0006620999993174337,0.613292599999113,197.6611727999989,0.4754541000002064,0.4754541000002064,0.4754541000002064,None,,,,,,,,,01,2025-08-21_14h09.00.014,controlStroop,2023.2.1,59.926278692197585,2025-08-21 14h09.11.562219 +0100,
156,0,156,0,197.67441270000018,,,,,,,,,,,,,,,,,197.66287919999922,157,green,green,1.0,c,197.67441270000018,197.67441270000018,,,198.40327309999884,c,1.0980918999994174,1.0,0.0,c,1,198.4087987999992,0.0008958999987953575,0.0008958999987953575,0.36559109999871,198.7794716999997,0.7219661999988602,0.7219661999988602,0.7219661999988602,None,,,,,,,,,01,2025-08-21_14h09.00.014,controlStroop,2023.2.1,59.926278692197585,2025-08-21 14h09.11.562219 +0100,
157,0,157,0,198.7915596999992,,,,,,,,,,,,,,,,,198.7808772999997,158,yellow,yellow,1.0,s,198.7915596999992,198.7915596999992,,,199.26972969999952,s,1.0980918999994174,1.0,0.0,s,1,199.274725199999,0.0004353000003902707,0.0004353000003902707,0.6260129000002053,199.9073145000002,0.46199970000088797,0.46199970000088797,0.46199970000088797,None,,,,,,,,,01,2025-08-21_14h09.00.014,controlStroop,2023.2.1,59.926278692197585,2025-08-21 14h09.11.562219 +0100,
158,0,158,0,199.9199351999996,,,,,,,,,,,,,,,,,199.90845219999937,159,blue,blue,1.0,l,199.9199351999996,199.9199351999996,,,200.42010850000042,m,1.0980918999994174,0.0,0.0,m,0,200.42452849999972,0.0004011000000900822,0.0004011000000900822,0.5915512999999919,201.02188519999982,0.49689330000001064,,0.49689330000001064,None,,,,,,,,,01,2025-08-21_14h09.00.014,controlStroop,2023.2.1,59.926278692197585,2025-08-21 14h09.11.562219 +0100,
159,0,159,0,201.03880500000014,,,,,,,,,,,,,,,,,201.023640899999,160,green,green,1.0,c,201.03880500000014,201.03880500000014,,,201.58641979999993,c,1.0980918999994174,1.0,0.0,c,1,201.59122360000038,0.0004262999991624383,0.0004262999991624383,0.5454484000001685,202.14228179999918,0.5422502000001259,0.5422502000001259,0.5422502000001259,None,,,,,,,,,01,2025-08-21_14h09.00.014,controlStroop,2023.2.1,59.926278692197585,2025-08-21 14h09.11.562219 +0100,
160,0,160,0,202.15468200000032,,,,,,,,,,,,,,,,,202.14402139999947,161,blue,blue,1.0,l,202.15468200000032,202.15468200000032,,,202.65247859999909,l,1.0980918999994174,1.0,0.0,l,1,202.65572169999905,0.0004346999994595535,0.0004346999994595535,0.60118169999987,203.2674092999987,0.48611610000079963,0.48611610000079963,0.48611610000079963,None,,,,,,,,,01,2025-08-21_14h09.00.014,controlStroop,2023.2.1,59.926278692197585,2025-08-21 14h09.11.562219 +0100,
161,0,161,0,203.28327619999982,,,,,,,,,,,,,,,,,203.26831909999964,162,yellow,yellow,1.0,s,203.28327619999982,203.28327619999982,,,203.7361067999991,s,1.0980918999994174,1.0,0.0,s,1,203.73989129999973,0.000452199999926961,0.000452199999926961,0.6402471000001242,204.386391,0.44755629999963276,0.44755629999963276,0.44755629999963276,None,,,,,,,,,01,2025-08-21_14h09.00.014,controlStroop,2023.2.1,59.926278692197585,2025-08-21 14h09.11.562219 +0100,
162,0,162,0,204.4002404999992,,,,,,,,,,,,,,,,,204.38820569999916,163,blue,blue,1.0,l,204.4002404999992,204.4002404999992,,,204.98576329999923,l,1.0980918999994174,1.0,0.0,l,1,204.98810140000023,0.0002565000013419194,0.0002565000013419194,0.506583899999896,205.50370029999976,0.5794891000005009,0.5794891000005009,0.5794891000005009,None,,,,,,,,,01,2025-08-21_14h09.00.014,controlStroop,2023.2.1,59.926278692197585,2025-08-21 14h09.11.562219 +0100,
163,0,163,0,205.5163266999989,,,,,,,,,,,,,,,,,205.5049330999991,164,green,green,1.0,c,205.5163266999989,205.5163266999989,,,206.0687708000005,c,1.0980918999994174,1.0,0.0,c,1,206.07232359999944,0.00048129999959201086,0.00048129999959201086,0.5502093000013701,206.6340820000005,0.5359154999987368,0.5359154999987368,0.5359154999987368,None,,,,,,,,,01,2025-08-21_14h09.00.014,controlStroop,2023.2.1,59.926278692197585,2025-08-21 14h09.11.562219 +0100,
164,0,164,0,206.64987949999886,,,,,,,,,,,,,,,,,206.63478659999964,165,yellow,yellow,1.0,s,206.64987949999886,206.64987949999886,,,207.12150199999996,s,1.0980918999994174,1.0,0.0,s,1,207.12656849999985,0.0007026999992376659,0.0007026999992376659,0.6206602999991446,207.74896780000017,0.4680149999985588,0.4680149999985588,0.4680149999985588,None,,,,,,,,,01,2025-08-21_14h09.00.014,controlStroop,2023.2.1,59.926278692197585,2025-08-21 14h09.11.562219 +0100,
165,0,165,0,207.7668195999995,,,,,,,,,,,,,,,,,207.7507652000004,166,green,green,1.0,c,207.7668195999995,207.7668195999995,,,208.23606649999965,c,1.0980918999994174,1.0,0.0,c,1,208.23991569999998,0.00045529999988502823,0.00045529999988502823,0.6238062000011269,208.87020649999977,0.4649991999995109,0.4649991999995109,0.4649991999995109,None,,,,,,,,,01,2025-08-21_14h09.00.014,controlStroop,2023.2.1,59.926278692197585,2025-08-21 14h09.11.562219 +0100,
166,0,166,0,208.88612990000001,,,,,,,,,,,,,,,,,208.87195579999934,167,yellow,yellow,1.0,s,208.88612990000001,208.88612990000001,,,209.55214979999982,s,1.0980918999994174,1.0,0.0,s,1,209.55626680000023,0.00042799999937415123,0.00042799999937415123,0.4247613999996247,209.98655739999958,0.661935000000085,0.661935000000085,0.661935000000085,None,,,,,,,,,01,2025-08-21_14h09.00.014,controlStroop,2023.2.1,59.926278692197585,2025-08-21 14h09.11.562219 +0100,
167,0,167,0,210.00071659999958,,,,,,,,,,,,,,,,,209.98780409999927,168,red,red,1.0,m,210.00071659999958,210.00071659999958,,,210.51833699999952,m,1.0980918999994174,1.0,0.0,m,1,210.52050249999957,0.000247500000114087,0.000247500000114087,0.5832673999993858,211.11749400000008,0.5041743000001588,0.5041743000001588,0.5041743000001588,None,,,,,,,,,01,2025-08-21_14h09.00.014,controlStroop,2023.2.1,59.926278692197585,2025-08-21 14h09.11.562219 +0100,
168,0,168,0,211.13318509999954,,,,,,,,,,,,,,,,,211.1188934999991,169,blue,blue,1.0,l,211.13318509999954,211.13318509999954,,,211.6690335000003,l,1.0980918999994174,1.0,0.0,l,1,211.67307169999913,0.0004623000004357891,0.0004623000004357891,0.5608011000003899,212.23918070000036,0.5282086999995954,0.5282086999995954,0.5282086999995954,None,,,,,,,,,01,2025-08-21_14h09.00.014,controlStroop,2023.2.1,59.926278692197585,2025-08-21 14h09.11.562219 +0100,
169,0,169,0,212.25429259999873,,,,,,,,,,,,,,,,,212.2405222999987,170,yellow,yellow,1.0,s,212.25429259999873,212.25429259999873,213.3664276999989,213.3664276999989,213.35130240000035,nan,1.0980918999994174,0.0,0.0,None,0,213.35484089999954,0.0006928999991941964,0.0006928999991941964,0.04528089999985241,213.4130329999989,,,,,,,,,,,,,01,2025-08-21_14h09.00.014,controlStroop,2023.2.1,59.926278692197585,2025-08-21 14h09.11.562219 +0100,
170,0,170,0,213.4302327000005,,,,,,,,,,,,,,,,,213.41519919999882,171,red,red,1.0,m,213.4302327000005,213.4302327000005,214.5331600999998,214.5331600999998,214.51797970000007,nan,1.0980918999994174,0.0,0.0,None,0,214.52095319999898,0.0005638000002363697,0.0005638000002363697,0.045591599999170285,214.58299989999978,,,,,,,,,,,,,01,2025-08-21_14h09.00.014,controlStroop,2023.2.1,59.926278692197585,2025-08-21 14h09.11.562219 +0100,
171,0,171,0,214.59575529999893,,,,,,,,,,,,,,,,,214.5844920999989,172,green,green,1.0,c,214.59575529999893,214.59575529999893,215.69972159999998,215.69972159999998,215.68466239999907,nan,1.0980918999994174,0.0,0.0,None,0,215.68744700000025,0.0005449000000226079,0.0005449000000226079,0.04535030000079132,215.7528657999992,,,,,,,,,,,,,01,2025-08-21_14h09.00.014,controlStroop,2023.2.1,59.926278692197585,2025-08-21 14h09.11.562219 +0100,
172,0,172,0,215.77458359999946,,,,,,,,,,,,,,,,,215.7549930999994,173,yellow,yellow,1.0,s,215.77458359999946,215.77458359999946,216.88242249999894,216.88242249999894,216.86720739999873,nan,1.0980918999994174,0.0,0.0,None,0,216.8707419000002,0.0007128999986889539,0.0007128999986889539,0.04498609999973269,216.93307060000006,,,,,,,,,,,,,01,2025-08-21_14h09.00.014,controlStroop,2023.2.1,59.926278692197585,2025-08-21 14h09.11.562219 +0100,
173,0,173,0,216.94601189999958,,,,,,,,,,,,,,,,,216.9346291999991,174,green,green,1.0,c,216.94601189999958,216.94601189999958,218.04947589999938,218.04947589999938,218.0345567000004,nan,1.0980918999994174,0.0,0.0,None,0,218.03762669999924,0.0005758999996032799,0.0005758999996032799,0.04544809999970312,218.10319510000045,,,,,,,,,,,,,01,2025-08-21_14h09.00.014,controlStroop,2023.2.1,59.926278692197585,2025-08-21 14h09.11.562219 +0100,
174,0,174,0,218.12347760000011,,,,,,,,,,,,,,,,,218.10484329999963,175,yellow,yellow,1.0,s,218.12347760000011,218.12347760000011,219.23255169999902,219.23255169999902,219.2177816000003,nan,1.0980918999994174,0.0,0.0,None,0,219.2208298000005,0.0007177999996201834,0.0007177999996201834,0.04572540000117442,219.28270150000026,,,,,,,,,,,,,01,2025-08-21_14h09.00.014,controlStroop,2023.2.1,59.926278692197585,2025-08-21 14h09.11.562219 +0100,
175,0,175,0,219.30164119999972,,,,,,,,,,,,,,,,,219.2844441999987,176,green,green,1.0,c,219.30164119999972,219.30164119999972,220.39947050000046,220.39947050000046,220.3843907999999,nan,1.0980918999994174,0.0,0.0,None,0,220.38763429999926,0.0007911000011517899,0.0007911000011517899,0.0452144999999291,220.45282079999924,,,,,,,,,,,,,01,2025-08-21_14h09.00.014,controlStroop,2023.2.1,59.926278692197585,2025-08-21 14h09.11.562219 +0100,
176,0,176,0,220.46823629999926,,,,,,,,,,,,,,,,,220.4546532000004,177,blue,blue,1.0,l,220.46823629999926,220.46823629999926,221.56545939999887,221.56545939999887,221.55031249999956,nan,1.0980918999994174,0.0,0.0,None,0,221.55254779999996,0.00040270000135933515,0.00040270000135933515,0.04706210000040301,221.61285320000025,,,,,,,,,,,,,01,2025-08-21_14h09.00.014,controlStroop,2023.2.1,59.926278692197585,2025-08-21 14h09.11.562219 +0100,
177,0,177,0,221.63219860000027,,,,,,,,,,,,,,,,,221.6146719999997,178,green,green,1.0,c,221.63219860000027,221.63219860000027,222.7323612,222.7323612,222.71755889999986,nan,1.0980918999994174,0.0,0.0,None,0,222.72327500000029,0.0004937000012432691,0.0004937000012432691,0.042821300001378404,222.78291439999884,,,,,,,,,,,,,01,2025-08-21_14h09.00.014,controlStroop,2023.2.1,59.926278692197585,2025-08-21 14h09.11.562219 +0100,
178,0,178,0,222.79930479999894,,,,,,,,,,,,,,,,,222.7846866,179,blue,blue,1.0,l,222.79930479999894,222.79930479999894,223.8995675999995,223.8995675999995,223.88358919999882,nan,1.0980918999994174,0.0,0.0,None,0,223.88544609999917,0.0004093000006832881,0.0004093000006832881,0.04742140000053041,223.95258859999922,,,,,,,,,,,,,01,2025-08-21_14h09.00.014,controlStroop,2023.2.1,59.926278692197585,2025-08-21 14h09.11.562219 +0100,
179,0,179,0,223.96558860000005,,,,,,,,,,,,,,,,,223.95431069999904,180,red,red,1.0,m,223.96558860000005,223.96558860000005,225.0655415000001,225.0655415000001,225.05057309999938,nan,1.0980918999994174,0.0,0.0,None,0,225.0535206000004,0.000611699999353732,0.000611699999353732,0.045620400000188965,225.11286819999987,,,,,,,,,,,,,01,2025-08-21_14h09.00.014,controlStroop,2023.2.1,59.926278692197585,2025-08-21 14h09.11.562219 +0100,
180,0,180,0,225.12884659999872,,,,,,,,,,,,,,,,,225.11485129999892,181,green,green,1.0,c,225.12884659999872,225.12884659999872,226.2321678999997,226.2321678999997,226.2172570999992,nan,1.0980918999994174,0.0,0.0,None,0,226.22010430000046,0.0005657000001519918,0.0005657000001519918,0.04528600000048755,226.28316149999955,,,,,,,,,,,,,01,2025-08-21_14h09.00.014,controlStroop,2023.2.1,59.926278692197585,2025-08-21 14h09.11.562219 +0100,
181,0,181,0,226.29758299999958,,,,,,,,,,,,,,,,,226.2848871999995,182,red,red,1.0,m,226.29758299999958,226.29758299999958,227.3987849999994,227.3987849999994,227.38402809999934,nan,1.0980918999994174,0.0,0.0,None,0,227.38728869999977,0.000594900000578491,0.000594900000578491,0.04537909999999101,227.4531195999989,,,,,,,,,,,,,01,2025-08-21_14h09.00.014,controlStroop,2023.2.1,59.926278692197585,2025-08-21 14h09.11.562219 +0100,
182,0,182,0,227.46470950000003,,,,,,,,,,,,,,,,,227.45468769999934,183,green,green,1.0,c,227.46470950000003,227.46470950000003,228.5654326999993,228.5654326999993,228.55034390000037,nan,1.0980918999994174,0.0,0.0,None,0,228.5532364999999,0.0005810999991808785,0.0005810999991808785,0.04565629999888188,228.6126766999987,,,,,,,,,,,,,01,2025-08-21_14h09.00.014,controlStroop,2023.2.1,59.926278692197585,2025-08-21 14h09.11.562219 +0100,
183,0,183,0,228.63008049999917,,,,,,,,,,,,,,,,,228.61523060000036,184,red,red,1.0,m,228.63008049999917,228.63008049999917,229.73199589999967,229.73199589999967,229.71682839999994,nan,1.0980918999994174,0.0,0.0,None,0,229.7179716999999,0.0002229999990959186,0.0002229999990959186,0.04772400000001653,229.78363549999995,,,,,,,,,,,,,01,2025-08-21_14h09.00.014,controlStroop,2023.2.1,59.926278692197585,2025-08-21 14h09.11.562219 +0100,
184,0,184,0,229.80051490000005,,,,,,,,,,,,,,,,,229.78544209999927,185,green,green,1.0,c,229.80051490000005,229.80051490000005,230.898545,230.898545,230.88305629999923,nan,1.0980918999994174,0.0,0.0,None,0,230.8873365999989,0.0007081999992806232,0.0007081999992806232,0.04451299999891489,230.95219989999896,,,,,,,,,,,,,01,2025-08-21_14h09.00.014,controlStroop,2023.2.1,59.926278692197585,2025-08-21 14h09.11.562219 +0100,
185,0,185,0,230.9683683000003,,,,,,,,,,,,,,,,,230.9538541999991,186,red,red,1.0,m,230.9683683000003,230.9683683000003,232.06528640000033,232.06528640000033,232.05083019999984,nan,1.0980918999994174,0.0,0.0,None,0,232.05403060000026,0.0006034999987605261,0.0006034999987605261,0.04508769999847573,232.11306739999964,,,,,,,,,,,,,01,2025-08-21_14h09.00.014,controlStroop,2023.2.1,59.926278692197585,2025-08-21 14h09.11.562219 +0100,
186,0,186,0,232.1289342,,,,,,,,,,,,,,,,,232.11529259999952,187,green,green,1.0,c,232.1289342,232.1289342,233.23191099999895,233.23191099999895,233.21675229999892,nan,1.0980918999994174,0.0,0.0,None,0,233.21946209999987,0.0005087999998067971,0.0005087999998067971,0.04595060000065132,233.28329949999898,,,,,,,,,,,,,01,2025-08-21_14h09.00.014,controlStroop,2023.2.1,59.926278692197585,2025-08-21 14h09.11.562219 +0100,
187,0,187,0,233.29887299999973,,,,,,,,,,,,,,,,,233.28504109999994,188,red,red,1.0,m,233.29887299999973,233.29887299999973,234.39871649999986,234.39871649999986,234.38323800000035,nan,1.0980918999994174,0.0,0.0,None,0,234.38633239999945,0.0006317999996099388,0.0006317999996099388,0.04578079999919282,234.45310439999957,,,,,,,,,,,,,01,2025-08-21_14h09.00.014,controlStroop,2023.2.1,59.926278692197585,2025-08-21 14h09.11.562219 +0100,
188,0,188,0,234.4687042000005,,,,,,,,,,,,,,,,,234.45493319999878,189,blue,blue,1.0,l,234.4687042000005,234.4687042000005,235.58140879999883,235.58140879999883,235.56603689999974,nan,1.0980918999994174,0.0,0.0,None,0,235.56770619999952,0.00033230000008188654,0.00033230000008188654,0.04723829999966256,235.63352060000034,,,,,,,,,,,,,01,2025-08-21_14h09.00.014,controlStroop,2023.2.1,59.926278692197585,2025-08-21 14h09.11.562219 +0100,
189,0,189,0,235.6478635000003,,,,,,,,,,,,,,,,,235.63498489999984,190,yellow,yellow,1.0,s,235.6478635000003,235.6478635000003,236.74855860000025,236.74855860000025,236.73344629999883,nan,1.0980918999994174,0.0,0.0,None,0,236.73672629999965,0.0006071000007068506,0.0006071000007068506,0.04530309999972815,236.80335509999895,,,,,,,,,,,,,01,2025-08-21_14h09.00.014,controlStroop,2023.2.1,59.926278692197585,2025-08-21 14h09.11.562219 +0100,
190,0,190,0,236.8168016999989,,,,,,,,,,,,,,,,,236.8051581999989,191,red,red,1.0,m,236.8168016999989,236.8168016999989,237.91517430000022,237.91517430000022,237.90012790000037,nan,1.0980918999994174,0.0,0.0,None,0,237.90348959999938,0.0006412999991880497,0.0006412999991880497,0.04516390000026149,237.96277089999967,,,,,,,,,,,,,01,2025-08-21_14h09.00.014,controlStroop,2023.2.1,59.926278692197585,2025-08-21 14h09.11.562219 +0100,
191,0,191,0,237.98619859999963,,,,,,,,,,,,,,,,,237.96561589999874,192,yellow,yellow,1.0,s,237.98619859999963,237.98619859999963,239.0986155999999,239.0986155999999,239.08357849999993,nan,1.0980918999994174,0.0,0.0,None,0,239.08678560000044,0.0006673999996564817,0.0006673999996564817,0.04511199999978999,239.1529799,,,,,,,,,,,,,01,2025-08-21_14h09.00.014,controlStroop,2023.2.1,59.926278692197585,2025-08-21 14h09.11.562219 +0100,
192,0,192,0,239.17145809999965,,,,,,,,,,,,,,,,,239.15472169999884,193,red,red,1.0,m,239.17145809999965,239.17145809999965,240.2816088999989,240.2816088999989,240.2664789999999,nan,1.0980918999994174,0.0,0.0,None,0,240.26975130000028,0.000666300000375486,0.000666300000375486,0.04539870000007795,240.33289510000031,,,,,,,,,,,,,01,2025-08-21_14h09.00.014,controlStroop,2023.2.1,59.926278692197585,2025-08-21 14h09.11.562219 +0100,
193,0,193,0,240.36214889999974,,,,,,,,,,,,,,,,,240.33474519999982,194,yellow,yellow,1.0,s,240.36214889999974,240.36214889999974,241.46479519999957,241.46479519999957,241.45015950000015,nan,1.0980918999994174,0.0,0.0,None,0,241.4534169999988,0.0005923000007896917,0.0005923000007896917,0.0448117000014463,241.51291719999972,,,,,,,,,,,,,01,2025-08-21_14h09.00.014,controlStroop,2023.2.1,59.926278692197585,2025-08-21 14h09.11.562219 +0100,
194,0,194,0,241.53222519999872,,,,,,,,,,,,,,,,,241.5150297,195,green,green,1.0,c,241.53222519999872,241.53222519999872,242.63137519999873,242.63137519999873,242.61679949999962,nan,1.0980918999994174,0.0,0.0,None,0,242.62010259999988,0.0005926999983785208,0.0005926999983785208,0.045298799999727635,242.68307999999888,,,,,,,,,,,,,01,2025-08-21_14h09.00.014,controlStroop,2023.2.1,59.926278692197585,2025-08-21 14h09.11.562219 +0100,
195,0,195,0,242.70942850000029,,,,,,,,,,,,,,,,,242.68488869999965,196,yellow,yellow,1.0,s,242.70942850000029,242.70942850000029,243.8148001999998,243.8148001999998,243.79994859999897,nan,1.0980918999994174,0.0,0.0,None,0,243.8037504999993,0.0007664000004297122,0.0007664000004297122,0.04465929999969376,243.8627381999995,,,,,,,,,,,,,01,2025-08-21_14h09.00.014,controlStroop,2023.2.1,59.926278692197585,2025-08-21 14h09.11.562219 +0100,
196,0,196,0,243.88228789999994,,,,,,,,,,,,,,,,,243.86492329999965,197,blue,blue,1.0,l,243.88228789999994,243.88228789999994,244.98136589999922,244.98136589999922,244.96665629999916,nan,1.0980918999994174,0.0,0.0,None,0,244.96973799999978,0.0005113999995955965,0.0005113999995955965,0.045117199999367585,245.03315739999925,,,,,,,,,,,,,01,2025-08-21_14h09.00.014,controlStroop,2023.2.1,59.926278692197585,2025-08-21 14h09.11.562219 +0100,
197,0,197,0,245.04566129999876,,,,,,,,,,,,,,,,,245.03493549999985,198,green,green,1.0,c,245.04566129999876,245.04566129999876,246.14758959999926,246.14758959999926,246.13277449999987,nan,1.0980918999994174,0.0,0.0,None,0,246.13550719999876,0.0005762000000686385,0.0005762000000686385,0.04585159999987809,246.19287520000034,,,,,,,,,,,,,01,2025-08-21_14h09.00.014,controlStroop,2023.2.1,59.926278692197585,2025-08-21 14h09.11.562219 +0100,
198,0,198,0,246.2062690999992,,,,,,,,,,,,,,,,,246.19498039999962,199,blue,blue,1.0,l,246.2062690999992,246.2062690999992,247.31442470000002,247.31442470000002,247.29932339999868,nan,1.0980918999994174,0.0,0.0,None,0,247.30269249999947,0.0005551999984163558,0.0005551999984163558,0.04562179999993532,247.3623217000004,,,,,,,,,,,,,01,2025-08-21_14h09.00.014,controlStroop,2023.2.1,59.926278692197585,2025-08-21 14h09.11.562219 +0100,
199,0,199,0,247.3779641000001,,,,,,,,,,,,,,,,,247.3652323999995,200,green,green,1.0,c,247.3779641000001,247.3779641000001,,,248.00015539999913,c,1.0980918999994174,1.0,0.0,c,1,248.0046997999998,0.0004073000000062166,0.0004073000000062166,0.48024550000081945,248.49033400000008,0.607076699998288,0.607076699998288,0.607076699998288,None,,,,,,,,,01,2025-08-21_14h09.00.014,controlStroop,2023.2.1,59.926278692197585,2025-08-21 14h09.11.562219 +0100,
200,0,200,0,248.50120119999883,,,,,,,,,,,,,,,,,248.49181680000038,201,red,red,1.0,m,248.50120119999883,248.50120119999883,,,249.01652739999918,m,1.0980918999994174,1.0,0.0,m,1,249.02023960000042,0.00041819999933068175,0.00041819999933068175,0.5888290000002598,249.61505639999996,0.4993384999997943,0.4993384999997943,0.4993384999997943,None,,,,,,,,,01,2025-08-21_14h09.00.014,controlStroop,2023.2.1,59.926278692197585,2025-08-21 14h09.11.562219 +0100,
201,0,201,0,249.6272917999995,,,,,,,,,,,,,,,,,249.6166890000004,202,green,green,1.0,c,249.6272917999995,249.6272917999995,,,250.14993139999933,c,1.0980918999994174,1.0,0.0,c,1,250.15391869999985,0.0004687999989982927,0.0004687999989982927,0.5759544999982609,250.7357940999991,0.5128714999991644,0.5128714999991644,0.5128714999991644,None,,,,,,,,,01,2025-08-21_14h09.00.014,controlStroop,2023.2.1,59.926278692197585,2025-08-21 14h09.11.562219 +0100,
202,0,202,0,250.74919789999876,,,,,,,,,,,,,,,,,250.73752419999983,203,blue,blue,1.0,l,250.74919789999876,250.74919789999876,,,251.20032410000022,l,1.0980918999994174,1.0,0.0,l,1,251.203289699999,0.0005815999993501464,0.0005815999993501464,0.6419974000000366,251.8514250999997,0.4452495000005001,0.4452495000005001,0.4452495000005001,None,,,,,,,,,01,2025-08-21_14h09.00.014,controlStroop,2023.2.1,59.926278692197585,2025-08-21 14h09.11.562219 +0100,
203,0,203,0,251.86406749999878,,,,,,,,,,,,,,,,,251.8531294000004,204,yellow,yellow,1.0,s,251.86406749999878,251.86406749999878,,,252.3338703999998,s,1.0980918999994174,1.0,0.0,s,1,252.33952130000034,0.000750399998651119,0.000750399998651119,0.6364565999992919,252.98130599999968,0.45182000000022526,0.45182000000022526,0.45182000000022526,None,,,,,,,,,01,2025-08-21_14h09.00.014,controlStroop,2023.2.1,59.926278692197585,2025-08-21 14h09.11.562219 +0100,
204,0,204,0,252.9952644999994,,,,,,,,,,,,,,,,,252.98266799999874,205,red,red,1.0,m,252.9952644999994,252.9952644999994,,,253.56683630000043,m,1.0980918999994174,1.0,0.0,m,1,253.5710567999995,0.00046209999891289044,0.00046209999891289044,0.524952800000392,254.1023081000003,0.5630292999994708,0.5630292999994708,0.5630292999994708,None,,,,,,,,,01,2025-08-21_14h09.00.014,controlStroop,2023.2.1,59.926278692197585,2025-08-21 14h09.11.562219 +0100,
205,0,205,0,254.11540649999915,,,,,,,,,,,,,,,,,254.10425719999876,206,green,green,1.0,c,254.11540649999915,254.11540649999915,,,254.48280479999994,c,1.0980918999994174,1.0,0.0,c,1,254.4860322000004,0.00037789999987580813,0.00037789999987580813,0.734288400000878,255.2258810000003,0.35329749999982596,0.35329749999982596,0.35329749999982596,None,,,,,,,,,01,2025-08-21_14h09.00.014,controlStroop,2023.2.1,59.926278692197585,2025-08-21 14h09.11.562219 +0100,
206,0,206,0,255.23999319999893,,,,,,,,,,,,,,,,,255.22732079999878,207,red,red,1.0,m,255.23999319999893,255.23999319999893,,,255.7831912999991,m,1.0980918999994174,1.0,0.0,m,1,255.78795480000008,0.0005055999990872806,0.0005055999990872806,0.5599829999991925,256.35376410000026,0.527928299999985,0.527928299999985,0.527928299999985,None,,,,,,,,,01,2025-08-21_14h09.00.014,controlStroop,2023.2.1,59.926278692197585,2025-08-21 14h09.11.562219 +0100,
207,0,207,0,256.3781736000001,,,,,,,,,,,,,,,,,256.3555699999997,208,yellow,yellow,1.0,s,256.3781736000001,256.3781736000001,,,256.90003160000015,s,1.0980918999994174,1.0,0.0,s,1,256.90429330000006,0.0005196999991312623,0.0005196999991312623,0.5714606000001368,257.48184690000016,0.5156750999994983,0.5156750999994983,0.5156750999994983,None,,,,,,,,,01,2025-08-21_14h09.00.014,controlStroop,2023.2.1,59.926278692197585,2025-08-21 14h09.11.562219 +0100,
208,0,208,0,257.4971422999988,,,,,,,,,,,,,,,,,257.4835850999989,209,blue,blue,1.0,l,257.4971422999988,257.4971422999988,,,258.04995919999965,l,1.0980918999994174,1.0,0.0,l,1,258.05503599999975,0.0006087000001571141,0.0006087000001571141,0.5419229999988602,258.60294619999877,0.5460277000001952,0.5460277000001952,0.5460277000001952,None,,,,,,,,,01,2025-08-21_14h09.00.014,controlStroop,2023.2.1,59.926278692197585,2025-08-21 14h09.11.562219 +0100,
209,0,209,0,258.6168390999992,,,,,,,,,,,,,,,,,258.60492089999934,210,green,green,1.0,c,258.6168390999992,258.6168390999992,,,259.33287949999976,c,1.0980918999994174,1.0,0.0,c,1,259.3352369999993,0.000454699998954311,0.000454699998954311,0.3885372999993706,259.7323223000003,0.6985788000001776,0.6985788000001776,0.6985788000001776,None,,,,,,,,,01,2025-08-21_14h09.00.014,controlStroop,2023.2.1,59.926278692197585,2025-08-21 14h09.11.562219 +0100,
210,0,210,0,259.7470572000002,,,,,,,,,,,,,,,,,259.7339663999992,211,red,red,1.0,m,259.7470572000002,259.7470572000002,,,260.49954160000016,l,1.0980918999994174,0.0,0.0,l,0,260.5033010999996,0.0007762000004731817,0.0007762000004731817,0.34643060000053083,260.8553345,0.7413190999996004,,0.7413190999996004,None,,,,,,,,,01,2025-08-21_14h09.00.014,controlStroop,2023.2.1,59.926278692197585,2025-08-21 14h09.11.562219 +0100,
211,0,211,0,260.8690913999999,,,,,,,,,,,,,,,,,260.85690479999903,212,blue,blue,1.0,l,260.8690913999999,260.8690913999999,,,261.4660757999991,l,1.0980918999994174,1.0,0.0,l,1,261.47147699999914,0.0008590999987063697,0.0008590999987063697,0.5022980999983702,261.97979549999945,0.5856776000000536,0.5856776000000536,0.5856776000000536,None,,,,,,,,,01,2025-08-21_14h09.00.014,controlStroop,2023.2.1,59.926278692197585,2025-08-21 14h09.11.562219 +0100,
212,0,212,0,261.99467259999983,,,,,,,,,,,,,,,,,261.98164840000027,213,red,red,1.0,m,261.99467259999983,261.99467259999983,,,262.5160935999993,m,1.0980918999994174,1.0,0.0,m,1,262.5219146999989,0.0008160999987012474,0.0008160999987012474,0.5809988000000885,263.10881209999934,0.5077503000011347,0.5077503000011347,0.5077503000011347,None,,,,,,,,,01,2025-08-21_14h09.00.014,controlStroop,2023.2.1,59.926278692197585,2025-08-21 14h09.11.562219 +0100,
213,0,213,0,263.1209619000001,,,,,,,,,,,,,,,,,263.1104464,214,blue,blue,1.0,l,263.1209619000001,263.1209619000001,,,263.68424810000033,l,1.0980918999994174,1.0,0.0,l,1,263.68888569999945,0.00042220000068482477,0.00042220000068482477,0.5291360000010172,264.2244541,0.5594885999998951,0.5594885999998951,0.5594885999998951,None,,,,,,,,,01,2025-08-21_14h09.00.014,controlStroop,2023.2.1,59.926278692197585,2025-08-21 14h09.11.562219 +0100,
214,0,214,0,264.23672970000007,,,,,,,,,,,,,,,,,264.225981399999,215,green,green,1.0,c,264.23672970000007,264.23672970000007,,,264.7832417999998,s,1.0980918999994174,0.0,0.0,s,0,264.7883536999998,0.0007494000001315726,0.0007494000001315726,0.5459977999998955,265.34002379999947,0.5417483000001084,,0.5417483000001084,None,,,,,,,,,01,2025-08-21_14h09.00.014,controlStroop,2023.2.1,59.926278692197585,2025-08-21 14h09.11.562219 +0100,
215,0,215,0,265.355074699999,,,,,,,,,,,,,,,,,265.34271179999996,216,red,red,1.0,m,265.355074699999,265.355074699999,,,265.81488159999935,m,1.0980918999994174,1.0,0.0,m,1,265.81866049999917,0.0006473000012192642,0.0006473000012192642,0.6393055999997159,266.4636107999995,0.44864919999963604,0.44864919999963604,0.44864919999963604,None,,,,,,,,,01,2025-08-21_14h09.00.014,controlStroop,2023.2.1,59.926278692197585,2025-08-21 14h09.11.562219 +0100,
,,,,,,,,,,,,,,,,,,,,,,,,,,,,,,,,,,,,,,,,,,,,,,,266.4637378999996,266.4733448999996,266.4733448999996,266.4733448999996,267.3841648999987,space,0.9021611999996821,None,01,2025-08-21_14h09.00.014,controlStroop,2023.2.1,59.926278692197585,2025-08-21 14h09.11.562219 +0100,
