experimentalBlock.thisRepN,experimentalBlock.thisTrialN,experimentalBlock.thisN,experimentalBlock.thisIndex,thisRow.t,notes,Instruction.started,instImage.started,Instruction.stopped,Instruction2.started,instImage_2.started,Instruction2.stopped,starttask.started,startText.started,moveOn_3.started,starttask.stopped,moveOn_3.keys,moveOn_3.rt,moveOn_3.duration,sequenceGeneration.started,sequenceGeneration.stopped,experimentalTrial.started,myExp.trial,myExp.word,myExp.color,myExp.congruent,myExp.expectedResponse,stroopStim.started,stroopResp.started,experimentalTrial.stopped,myExp.observedResponse,myExp.trialDuration,myExp.Accuracy,myExp.RT_allTrials,myExp.step,stroopResp.keys,stroopResp.corr,stroopResp.rt,stroopResp.duration,blank.started,fbSound.started,blankPeriod.started,fbSound.stopped,blank.stopped,myExp.RT_correctTrials,stroopStim.stopped,stroopResp.stopped,End.started,endImage.started,endText.started,moveOn_4.started,End.stopped,moveOn_4.keys,moveOn_4.rt,moveOn_4.duration,participant,date,expName,psychopyVersion,frameRate,expStart,
,,,,,,0.005168199999388889,0.040807899998981156,4.7720324999991135,4.77207129999988,4.786971899999116,17.88826489999883,17.888298800000484,17.900629100000515,17.900629100000515,18.817977599999722,space,0.9139912999999069,None,,,,,,,,,,,,,,,,,,,,,,,,,,,,,,,,,,,,,01,2025-08-21_14h02.06.839,standardStroop,2023.2.1,59.89243318974531,2025-08-21 14h02.19.944406 +0100,
0,0,0,0,19.410525999999663,,,,,,,,,,,,,,,18.818009399999937,19.31826799999908,19.37221800000043,1,blue,green,0.0,c,19.410525999999663,19.410525999999663,19.902353499999663,m,1.0980918999994174,0.0,0.48706789999960165,0.0,m,0,0.48706789999960165,None,19.914236999999048,0.0005263000002742046,0.0005263000002742046,0.6024744999995164,20.51792629999909,,,,,,,,,,,,01,2025-08-21_14h02.06.839,standardStroop,2023.2.1,59.89243318974531,2025-08-21 14h02.19.944406 +0100,
1,0,1,0,20.548601899999994,,,,,,,,,,,,,,,,,20.51961250000022,2,yellow,yellow,1.0,s,20.548601899999994,20.548601899999994,20.951454599999124,s,1.0980918999994174,1.0,0.39851769999950193,0.0,s,1,0.39851769999950193,None,20.954564599998776,0.0004503999989537988,0.0004503999989537988,0.687959700000647,21.651244799999404,0.39851769999950193,,,,,,,,,,,01,2025-08-21_14h02.06.839,standardStroop,2023.2.1,59.89243318974531,2025-08-21 14h02.19.944406 +0100,
2,0,2,0,21.66800239999975,,,,,,,,,,,,,,,,,21.652763799998866,3,green,blue,0.0,l,21.66800239999975,21.66800239999975,22.23524179999913,l,1.0980918999994174,1.0,0.5636826000009023,0.0,l,1,0.5636826000009023,None,22.239239000000453,0.00042329999996582046,0.00042329999996582046,0.524169800000891,22.76970909999909,0.5636826000009023,,,,,,,,,,,01,2025-08-21_14h02.06.839,standardStroop,2023.2.1,59.89243318974531,2025-08-21 14h02.19.944406 +0100,
3,0,3,0,22.786006299998917,,,,,,,,,,,,,,,,,22.77173539999967,4,yellow,yellow,1.0,s,22.786006299998917,22.786006299998917,23.236016900000322,s,1.0980918999994174,1.0,0.432436900000539,0.0,s,1,0.432436900000539,None,23.241876000000047,0.0008223999993788311,0.0008223999993788311,0.6551665999995748,23.90275610000026,0.432436900000539,,,,,,,,,,,01,2025-08-21_14h02.06.839,standardStroop,2023.2.1,59.89243318974531,2025-08-21 14h02.19.944406 +0100,
4,0,4,0,23.91896699999961,,,,,,,,,,,,,,,,,23.903856999999334,5,red,green,0.0,c,23.91896699999961,23.91896699999961,24.502453199998854,c,1.0980918999994174,1.0,0.5710521999990306,0.0,c,1,0.5710521999990306,None,24.505738300000303,0.000356399999873247,0.000356399999873247,0.5156253999994078,25.034320700000535,0.5710521999990306,,,,,,,,,,,01,2025-08-21_14h02.06.839,standardStroop,2023.2.1,59.89243318974531,2025-08-21 14h02.19.944406 +0100,
5,0,5,0,25.050150799999756,,,,,,,,,,,,,,,,,25.035821899999064,6,yellow,yellow,1.0,s,25.050150799999756,25.050150799999756,25.435182799999893,s,1.0980918999994174,1.0,0.3815422999996372,0.0,s,1,0.3815422999996372,None,25.437334299998838,0.00032189999910769984,0.00032189999910769984,0.7045777999992424,26.151316499999666,0.3815422999996372,,,,,,,,,,,01,2025-08-21_14h02.06.839,standardStroop,2023.2.1,59.89243318974531,2025-08-21 14h02.19.944406 +0100,
6,0,6,0,26.16826719999881,,,,,,,,,,,,,,,,,26.153090599998905,7,green,green,1.0,c,26.16826719999881,26.16826719999881,26.602203200000076,c,1.0980918999994174,1.0,0.41869990000122925,0.0,c,1,0.41869990000122925,None,26.60691079999924,0.0004967999993823469,0.0004967999993823469,0.6682583999991039,27.280765699999392,0.41869990000122925,,,,,,,,,,,01,2025-08-21_14h02.06.839,standardStroop,2023.2.1,59.89243318974531,2025-08-21 14h02.19.944406 +0100,
7,0,7,0,27.29584149999937,,,,,,,,,,,,,,,,,27.282916099999056,8,red,blue,0.0,l,27.29584149999937,27.29584149999937,27.684854999999516,m,1.0980918999994174,0.0,0.3874279999999999,0.0,m,0,0.3874279999999999,None,27.68746800000008,0.0003954999992856756,0.0003954999992856756,0.6997487999997247,28.401143999999476,,,,,,,,,,,,01,2025-08-21_14h02.06.839,standardStroop,2023.2.1,59.89243318974531,2025-08-21 14h02.19.944406 +0100,
8,0,8,0,28.417798999998922,,,,,,,,,,,,,,,,,28.403502899998784,9,blue,green,0.0,c,28.417798999998922,28.417798999998922,28.953241299999718,m,1.0980918999994174,0.0,0.5230810000011843,0.0,m,0,0.5230810000011843,None,28.960242899998775,0.0009454000010009622,0.0009454000010009622,0.5677982000015618,29.529632499999934,,,,,,,,,,,,01,2025-08-21_14h02.06.839,standardStroop,2023.2.1,59.89243318974531,2025-08-21 14h02.19.944406 +0100,
9,0,9,0,29.54657009999937,,,,,,,,,,,,,,,,,29.531448800000362,10,green,green,1.0,c,29.54657009999937,29.54657009999937,30.036317599999165,c,1.0980918999994174,1.0,0.47870229999898584,0.0,c,1,0.47870229999898584,None,30.04234109999925,0.00105009999970207,0.00105009999970207,0.6108917000001384,30.65973049999957,0.47870229999898584,,,,,,,,,,,01,2025-08-21_14h02.06.839,standardStroop,2023.2.1,59.89243318974531,2025-08-21 14h02.19.944406 +0100,
10,0,10,0,30.679250400000456,,,,,,,,,,,,,,,,,30.66170389999934,11,red,blue,0.0,l,30.679250400000456,30.679250400000456,31.053337499999543,l,1.0980918999994174,1.0,0.35700640000140993,0.0,l,1,0.35700640000140993,None,31.060696799999278,0.0009230000014213147,0.0009230000014213147,0.7308061000003363,31.79322030000003,0.35700640000140993,,,,,,,,,,,01,2025-08-21_14h02.06.839,standardStroop,2023.2.1,59.89243318974531,2025-08-21 14h02.19.944406 +0100,
11,0,11,0,31.810713900000337,,,,,,,,,,,,,,,,,31.795121699999072,12,blue,yellow,0.0,s,31.810713900000337,31.810713900000337,32.186800100000255,s,1.0980918999994174,1.0,0.3688000000001921,0.0,s,1,0.3688000000001921,None,32.1926900999988,0.0008531999992555939,0.0008531999992555939,0.7196285999998508,32.914256599999135,0.3688000000001921,,,,,,,,,,,01,2025-08-21_14h02.06.839,standardStroop,2023.2.1,59.89243318974531,2025-08-21 14h02.19.944406 +0100,
12,0,12,0,32.932608600000094,,,,,,,,,,,,,,,,,32.91648129999885,13,yellow,yellow,1.0,s,32.932608600000094,32.932608600000094,33.30283109999982,c,1.0980918999994174,0.0,0.3657705999994505,0.0,c,0,0.3657705999994505,None,33.30945739999879,0.0008168999993358739,0.0008168999993358739,0.7226559999999154,34.0339641999999,,,,,,,,,,,,01,2025-08-21_14h02.06.839,standardStroop,2023.2.1,59.89243318974531,2025-08-21 14h02.19.944406 +0100,
13,0,13,0,34.05151300000034,,,,,,,,,,,,,,,,,34.03595049999967,14,blue,blue,1.0,l,34.05151300000034,34.05151300000034,34.55212120000033,l,1.0980918999994174,1.0,0.4946617999994487,0.0,l,1,0.4946617999994487,None,34.55738029999884,0.0008812000014586374,0.0008812000014586374,0.594237700001031,35.15863720000016,0.4946617999994487,,,,,,,,,,,01,2025-08-21_14h02.06.839,standardStroop,2023.2.1,59.89243318974531,2025-08-21 14h02.19.944406 +0100,
14,0,14,0,35.17884839999897,,,,,,,,,,,,,,,,,35.16049659999953,15,yellow,green,0.0,c,35.17884839999897,35.17884839999897,35.88629839999885,c,1.0980918999994174,1.0,0.6998800000001211,0.0,c,1,0.6998800000001211,None,35.89326529999926,0.0007299999997485429,0.0007299999997485429,0.38760329999968235,36.28213340000002,0.6998800000001211,,,,,,,,,,,01,2025-08-21_14h02.06.839,standardStroop,2023.2.1,59.89243318974531,2025-08-21 14h02.19.944406 +0100,
15,0,15,0,36.300998299999264,,,,,,,,,,,,,,,,,36.283976200000325,16,red,red,1.0,m,36.300998299999264,36.300998299999264,36.7354207999997,m,1.0980918999994174,1.0,0.4259179000000586,0.0,m,1,0.4259179000000586,None,36.740977499999644,0.0010743000002548797,0.0010743000002548797,0.6625340999999025,37.409793799999534,0.4259179000000586,,,,,,,,,,,01,2025-08-21_14h02.06.839,standardStroop,2023.2.1,59.89243318974531,2025-08-21 14h02.19.944406 +0100,
16,0,16,0,37.42989209999905,,,,,,,,,,,,,,,,,37.41163469999992,17,yellow,yellow,1.0,s,37.42989209999905,37.42989209999905,37.85335269999996,s,1.0980918999994174,1.0,0.40682790000028035,0.0,s,1,0.40682790000028035,None,37.86121639999874,0.0010508000013942365,0.0010508000013942365,0.6807462000015221,38.54705379999905,0.40682790000028035,,,,,,,,,,,01,2025-08-21_14h02.06.839,standardStroop,2023.2.1,59.89243318974531,2025-08-21 14h02.19.944406 +0100,
17,0,17,0,38.56169349999982,,,,,,,,,,,,,,,,,38.548307099999874,18,red,green,0.0,c,38.56169349999982,38.56169349999982,39.05231830000048,c,1.0980918999994174,1.0,0.47457960000065214,0.0,c,1,0.47457960000065214,None,39.0583244999998,0.0006929999999556458,0.0006929999999556458,0.6147220999991987,39.67457490000015,0.47457960000065214,,,,,,,,,,,01,2025-08-21_14h02.06.839,standardStroop,2023.2.1,59.89243318974531,2025-08-21 14h02.19.944406 +0100,
18,0,18,0,39.69116969999959,,,,,,,,,,,,,,,,,39.6766291999993,19,green,red,0.0,m,39.69116969999959,39.69116969999959,40.23550280000018,m,1.0980918999994174,1.0,0.5343940000002476,0.0,m,1,0.5343940000002476,None,40.242087399999946,0.0009621999997762032,0.0009621999997762032,0.5539573000005475,40.797786999999516,0.5343940000002476,,,,,,,,,,,01,2025-08-21_14h02.06.839,standardStroop,2023.2.1,59.89243318974531,2025-08-21 14h02.19.944406 +0100,
19,0,19,0,40.81483230000049,,,,,,,,,,,,,,,,,40.8003561000005,20,blue,blue,1.0,l,40.81483230000049,40.81483230000049,41.21937009999965,l,1.0980918999994174,1.0,0.3946919000009075,0.0,l,1,0.3946919000009075,None,41.2261610000005,0.001103799999327748,0.001103799999327748,0.6936778999988746,41.92598249999901,0.3946919000009075,,,,,,,,,,,01,2025-08-21_14h02.06.839,standardStroop,2023.2.1,59.89243318974531,2025-08-21 14h02.19.944406 +0100,
20,0,20,0,41.94774890000008,,,,,,,,,,,,,,,,,41.92788459999974,21,red,red,1.0,m,41.94774890000008,41.94774890000008,42.418749799999205,m,1.0980918999994174,1.0,0.45838519999961136,0.0,m,1,0.45838519999961136,None,42.42432499999995,0.0009457000014663208,0.0009457000014663208,0.629908400000204,43.06047360000048,0.45838519999961136,,,,,,,,,,,01,2025-08-21_14h02.06.839,standardStroop,2023.2.1,59.89243318974531,2025-08-21 14h02.19.944406 +0100,
21,0,21,0,43.077862000000096,,,,,,,,,,,,,,,,,43.06243209999957,22,green,blue,0.0,l,43.077862000000096,43.077862000000096,43.50250020000021,l,1.0980918999994174,1.0,0.4148030000014842,0.0,l,1,0.4148030000014842,None,43.508420000000115,0.0006542000010085758,0.0006542000010085758,0.6723174000017025,44.18633989999944,0.4148030000014842,,,,,,,,,,,01,2025-08-21_14h02.06.839,standardStroop,2023.2.1,59.89243318974531,2025-08-21 14h02.19.944406 +0100,
22,0,22,0,44.20128040000054,,,,,,,,,,,,,,,,,44.18774800000028,23,yellow,green,0.0,c,44.20128040000054,44.20128040000054,44.852485699999306,c,1.0980918999994174,1.0,0.6365535000004456,0.0,c,1,0.6365535000004456,None,44.858827799998835,0.0008782999993854901,0.0008782999993854901,0.45164139999906183,45.31615939999938,0.6365535000004456,,,,,,,,,,,01,2025-08-21_14h02.06.839,standardStroop,2023.2.1,59.89243318974531,2025-08-21 14h02.19.944406 +0100,
23,0,23,0,45.33542200000011,,,,,,,,,,,,,,,,,45.317965500000355,24,red,red,1.0,m,45.33542200000011,45.33542200000011,45.852123599999686,m,1.0980918999994174,1.0,0.5054750999988755,0.0,m,1,0.5054750999988755,None,45.858676099998775,0.000845300000946736,0.000845300000946736,0.5802177000005031,46.442274400000315,0.5054750999988755,,,,,,,,,,,01,2025-08-21_14h02.06.839,standardStroop,2023.2.1,59.89243318974531,2025-08-21 14h02.19.944406 +0100,
24,0,24,0,46.454259699999966,,,,,,,,,,,,,,,,,46.44349759999932,25,yellow,yellow,1.0,s,46.454259699999966,46.454259699999966,46.88457620000008,s,1.0980918999994174,1.0,0.4154353000012634,0.0,s,1,0.4154353000012634,None,46.88972839999951,0.000738900000214926,0.000738900000214926,0.67205660000036,47.56619539999883,0.4154353000012634,,,,,,,,,,,01,2025-08-21_14h02.06.839,standardStroop,2023.2.1,59.89243318974531,2025-08-21 14h02.19.944406 +0100,
25,0,25,0,47.57632249999915,,,,,,,,,,,,,,,,,47.56750499999907,26,blue,red,0.0,m,47.57632249999915,47.57632249999915,48.134634000000005,m,1.0980918999994174,1.0,0.5496973999997863,0.0,m,1,0.5496973999997863,None,48.141612299999906,0.0008937000002333662,0.0008937000002333662,0.5383471000004647,48.68561299999965,0.5496973999997863,,,,,,,,,,,01,2025-08-21_14h02.06.839,standardStroop,2023.2.1,59.89243318974531,2025-08-21 14h02.19.944406 +0100,
26,0,26,0,48.7018922999996,,,,,,,,,,,,,,,,,48.68732309999905,27,red,green,0.0,c,48.7018922999996,48.7018922999996,49.101493799998934,c,1.0980918999994174,1.0,0.38439959999959683,0.0,c,1,0.38439959999959683,None,49.10674309999922,0.0007177999996201834,0.0007177999996201834,0.7018630999991728,49.81284980000055,0.38439959999959683,,,,,,,,,,,01,2025-08-21_14h02.06.839,standardStroop,2023.2.1,59.89243318974531,2025-08-21 14h02.19.944406 +0100,
27,0,27,0,49.829468500000075,,,,,,,,,,,,,,,,,49.81470590000026,28,green,green,1.0,c,49.829468500000075,49.829468500000075,50.319241999999576,c,1.0980918999994174,1.0,0.4851777999992919,0.0,c,1,0.4851777999992919,None,50.32627049999974,0.0009074999998119893,0.0009074999998119893,0.6020894999983284,50.93246670000008,0.4851777999992919,,,,,,,,,,,01,2025-08-21_14h02.06.839,standardStroop,2023.2.1,59.89243318974531,2025-08-21 14h02.19.944406 +0100,
28,0,28,0,50.94438049999917,,,,,,,,,,,,,,,,,50.933321099999375,29,yellow,blue,0.0,l,50.94438049999917,50.94438049999917,51.38385659999949,l,1.0980918999994174,1.0,0.42278840000108175,0.0,l,1,0.42278840000108175,None,51.38806089999889,0.0005258999990473967,0.0005258999990473967,0.6633901999994123,52.06645649999882,0.42278840000108175,,,,,,,,,,,01,2025-08-21_14h02.06.839,standardStroop,2023.2.1,59.89243318974531,2025-08-21 14h02.19.944406 +0100,
29,0,29,0,52.08238630000051,,,,,,,,,,,,,,,,,52.06778959999974,30,blue,yellow,0.0,s,52.08238630000051,52.08238630000051,52.484056399998735,c,1.0980918999994174,0.0,0.39464659999975993,0.0,c,0,0.39464659999975993,None,52.48676010000054,0.00031850000050326344,0.00031850000050326344,0.6916951000002882,53.1859843000002,,,,,,,,,,,,01,2025-08-21_14h02.06.839,standardStroop,2023.2.1,59.89243318974531,2025-08-21 14h02.19.944406 +0100,
30,0,30,0,53.198681099998794,,,,,,,,,,,,,,,,,53.18678369999907,31,red,red,1.0,m,53.198681099998794,53.198681099998794,53.60246740000002,m,1.0980918999994174,1.0,0.38919820000046457,0.0,m,1,0.38919820000046457,None,53.60862409999936,0.0007640999992872821,0.0007640999992872821,0.7006165000002511,54.310445699999036,0.38919820000046457,,,,,,,,,,,01,2025-08-21_14h02.06.839,standardStroop,2023.2.1,59.89243318974531,2025-08-21 14h02.19.944406 +0100,
31,0,31,0,54.32513370000015,,,,,,,,,,,,,,,,,54.3119200000001,32,blue,blue,1.0,l,54.32513370000015,54.32513370000015,55.4174922000002,nan,1.0980918999994174,0.0,,0.0,None,0,,,55.421585199999754,0.0008267000011983328,0.0008267000011983328,0.04448150000098394,55.48748419999902,,55.43236699999943,55.43236699999943,,,,,,,,,01,2025-08-21_14h02.06.839,standardStroop,2023.2.1,59.89243318974531,2025-08-21 14h02.19.944406 +0100,
32,0,32,0,55.50792000000001,,,,,,,,,,,,,,,,,55.48932889999924,33,red,yellow,0.0,s,55.50792000000001,55.50792000000001,56.60089320000043,nan,1.0980918999994174,0.0,,0.0,None,0,,,56.6042295999996,0.0008878000007825904,0.0008878000007825904,0.044916400000147405,56.66638409999905,,56.61551169999984,56.61551169999984,,,,,,,,,01,2025-08-21_14h02.06.839,standardStroop,2023.2.1,59.89243318974531,2025-08-21 14h02.19.944406 +0100,
33,0,33,0,56.68526269999893,,,,,,,,,,,,,,,,,56.6683223,34,blue,blue,1.0,l,56.68526269999893,56.68526269999893,57.91489299999921,nan,1.0980918999994174,0.0,,0.0,None,0,,,57.91733170000043,0.0003956000000471249,0.0003956000000471249,0.050621499998669606,57.98528029999943,,57.93543510000018,57.93543510000018,,,,,,,,,01,2025-08-21_14h02.06.839,standardStroop,2023.2.1,59.89243318974531,2025-08-21 14h02.19.944406 +0100,
34,0,34,0,57.99437399999988,,,,,,,,,,,,,,,,,57.9860809999991,35,green,green,1.0,c,57.99437399999988,57.99437399999988,59.08760859999893,nan,1.0980918999994174,0.0,,0.0,None,0,,,59.09082490000037,0.0006080999992263969,0.0006080999992263969,0.04677059999994526,59.15689249999923,,59.10407169999962,59.10407169999962,,,,,,,,,01,2025-08-21_14h02.06.839,standardStroop,2023.2.1,59.89243318974531,2025-08-21 14h02.19.944406 +0100,
35,0,35,0,59.18266509999921,,,,,,,,,,,,,,,,,59.158799900000304,36,yellow,blue,0.0,l,59.18266509999921,59.18266509999921,60.267103099999076,nan,1.0980918999994174,0.0,,0.0,None,0,,,60.27030869999908,0.0006804999993619276,0.0006804999993619276,0.04511209999873245,60.336273099999744,,60.28175079999892,60.28175079999892,,,,,,,,,01,2025-08-21_14h02.06.839,standardStroop,2023.2.1,59.89243318974531,2025-08-21 14h02.19.944406 +0100,
36,0,36,0,60.35248370000045,,,,,,,,,,,,,,,,,60.33790810000028,37,blue,blue,1.0,l,60.35248370000045,60.35248370000045,61.45052299999952,nan,1.0980918999994174,0.0,,0.0,None,0,,,61.45407949999935,0.0006081000010453863,0.0006081000010453863,0.04447690000051807,61.51673180000034,,61.465333699999974,61.465333699999974,,,,,,,,,01,2025-08-21_14h02.06.839,standardStroop,2023.2.1,59.89243318974531,2025-08-21 14h02.19.944406 +0100,
37,0,37,0,61.53629419999925,,,,,,,,,,,,,,,,,61.51856559999942,38,red,red,1.0,m,61.53629419999925,61.53629419999925,62.633915700000216,nan,1.0980918999994174,0.0,,0.0,None,0,,,62.63758810000036,0.0007559000005130656,0.0007559000005130656,0.04428849999931117,62.69675989999996,,62.64862429999994,62.64862429999994,,,,,,,,,01,2025-08-21_14h02.06.839,standardStroop,2023.2.1,59.89243318974531,2025-08-21 14h02.19.944406 +0100,
38,0,38,0,62.71618569999919,,,,,,,,,,,,,,,,,62.69888499999979,39,yellow,green,0.0,c,62.71618569999919,62.71618569999919,63.80016499999874,nan,1.0980918999994174,0.0,,0.0,None,0,,,63.804023900000175,0.0008459999990009237,0.0008459999990009237,0.04457409999849915,63.86611249999987,,63.81507729999976,63.81507729999976,,,,,,,,,01,2025-08-21_14h02.06.839,standardStroop,2023.2.1,59.89243318974531,2025-08-21 14h02.19.944406 +0100,
39,0,39,0,63.88406159999977,,,,,,,,,,,,,,,,,63.86767719999989,40,red,red,1.0,m,63.88406159999977,63.88406159999977,64.96717109999918,nan,1.0980918999994174,0.0,,0.0,None,0,,,64.97106510000049,0.0006963000014366116,0.0006963000014366116,0.04475470000033965,65.03645499999948,,64.98177170000054,64.98177170000054,,,,,,,,,01,2025-08-21_14h02.06.839,standardStroop,2023.2.1,59.89243318974531,2025-08-21 14h02.19.944406 +0100,
40,0,40,0,65.06920249999894,,,,,,,,,,,,,,,,,65.03897809999944,41,green,yellow,0.0,s,65.06920249999894,65.06920249999894,66.1666194999998,nan,1.0980918999994174,0.0,,0.0,None,0,,,66.1703720000005,0.0014298000005510403,0.0014298000005510403,0.04478659999949741,66.2363734999999,,66.18148399999882,66.18148399999882,,,,,,,,,01,2025-08-21_14h02.06.839,standardStroop,2023.2.1,59.89243318974531,2025-08-21 14h02.19.944406 +0100,
41,0,41,0,66.25927099999899,,,,,,,,,,,,,,,,,66.23913259999972,42,yellow,green,0.0,c,66.25927099999899,66.25927099999899,67.35023569999976,nan,1.0980918999994174,0.0,,0.0,None,0,,,67.35437719999936,0.0008949000002758112,0.0008949000002758112,0.044243899999855785,67.41626569999971,,67.36509509999996,67.36509509999996,,,,,,,,,01,2025-08-21_14h02.06.839,standardStroop,2023.2.1,59.89243318974531,2025-08-21 14h02.19.944406 +0100,
42,0,42,0,67.43428610000046,,,,,,,,,,,,,,,,,67.41818299999977,43,green,green,1.0,c,67.43428610000046,67.43428610000046,68.51733199999944,nan,1.0980918999994174,0.0,,0.0,None,0,,,68.5208406999991,0.0007874000002630055,0.0007874000002630055,0.04412090000005264,68.58641949999947,,68.53172970000014,68.53172970000014,,,,,,,,,01,2025-08-21_14h02.06.839,standardStroop,2023.2.1,59.89243318974531,2025-08-21 14h02.19.944406 +0100,
43,0,43,0,68.6069480999995,,,,,,,,,,,,,,,,,68.58922580000035,44,blue,yellow,0.0,s,68.6069480999995,68.6069480999995,69.69925279999916,nan,1.0980918999994174,0.0,,0.0,None,0,,,69.70075449999968,0.00040020000051299576,0.00040020000051299576,0.04743349999989732,69.76608370000031,,69.71519269999953,69.71519269999953,,,,,,,,,01,2025-08-21_14h02.06.839,standardStroop,2023.2.1,59.89243318974531,2025-08-21 14h02.19.944406 +0100,
44,0,44,0,69.78082249999898,,,,,,,,,,,,,,,,,69.76753519999875,45,green,green,1.0,c,69.78082249999898,69.78082249999898,70.86631060000036,nan,1.0980918999994174,0.0,,0.0,None,0,,,70.86954100000003,0.000605100000029779,0.000605100000029779,0.045545400000264635,70.93665789999977,,70.8813455999989,70.8813455999989,,,,,,,,,01,2025-08-21_14h02.06.839,standardStroop,2023.2.1,59.89243318974531,2025-08-21 14h02.19.944406 +0100,
45,0,45,0,70.95177519999925,,,,,,,,,,,,,,,,,70.93805969999994,46,blue,yellow,0.0,s,70.95177519999925,70.95177519999925,72.04950429999917,nan,1.0980918999994174,0.0,,0.0,None,0,,,72.05250809999961,0.0007418999994115438,0.0007418999994115438,0.04587879999962752,72.11631219999981,,72.06475940000018,72.06475940000018,,,,,,,,,01,2025-08-21_14h02.06.839,standardStroop,2023.2.1,59.89243318974531,2025-08-21 14h02.19.944406 +0100,
46,0,46,0,72.13228799999888,,,,,,,,,,,,,,,,,72.11783599999944,47,red,red,1.0,m,72.13228799999888,72.13228799999888,73.215991699999,nan,1.0980918999994174,0.0,,0.0,None,0,,,73.21926009999879,0.0006965000011405209,0.0006965000011405209,0.04558750000069267,73.27679360000002,,73.23126339999908,73.23126339999908,,,,,,,,,01,2025-08-21_14h02.06.839,standardStroop,2023.2.1,59.89243318974531,2025-08-21 14h02.19.944406 +0100,
47,0,47,0,73.29452649999985,,,,,,,,,,,,,,,,,73.2786445999991,48,green,green,1.0,c,73.29452649999985,73.29452649999985,74.38325629999963,nan,1.0980918999994174,0.0,,0.0,None,0,,,74.38675899999907,0.00066059999880963,0.00066059999880963,0.04461259999879985,74.44660149999982,,74.39828370000032,74.39828370000032,,,,,,,,,01,2025-08-21_14h02.06.839,standardStroop,2023.2.1,59.89243318974531,2025-08-21 14h02.19.944406 +0100,
48,0,48,0,74.46573569999964,,,,,,,,,,,,,,,,,74.44894690000001,49,yellow,red,0.0,m,74.46573569999964,74.46573569999964,75.55020589999913,nan,1.0980918999994174,0.0,,0.0,None,0,,,75.55385249999927,0.0009141999998973915,0.0009141999998973915,0.04416219999984605,75.61774429999969,,75.56459879999966,75.56459879999966,,,,,,,,,01,2025-08-21_14h02.06.839,standardStroop,2023.2.1,59.89243318974531,2025-08-21 14h02.19.944406 +0100,
49,0,49,0,75.63679559999946,,,,,,,,,,,,,,,,,75.6197147999992,50,green,green,1.0,c,75.63679559999946,75.63679559999946,76.73308319999887,nan,1.0980918999994174,0.0,,0.0,None,0,,,76.73679309999898,0.0007850000001781154,0.0007850000001781154,0.044679300001007505,76.79658019999988,,76.74780749999991,76.74780749999991,,,,,,,,,01,2025-08-21_14h02.06.839,standardStroop,2023.2.1,59.89243318974531,2025-08-21 14h02.19.944406 +0100,
50,0,50,0,76.81453779999902,,,,,,,,,,,,,,,,,76.79836619999878,51,red,yellow,0.0,s,76.81453779999902,76.81453779999902,77.89926139999989,nan,1.0980918999994174,0.0,,0.0,None,0,,,77.90248690000044,0.0006759000007150462,0.0006759000007150462,0.04531940000015311,77.96686599999884,,77.91448639999908,77.91448639999908,,,,,,,,,01,2025-08-21_14h02.06.839,standardStroop,2023.2.1,59.89243318974531,2025-08-21 14h02.19.944406 +0100,
51,0,51,0,77.9850406000005,,,,,,,,,,,,,,,,,77.96893180000006,52,yellow,blue,0.0,l,77.9850406000005,77.9850406000005,79.08277679999992,nan,1.0980918999994174,0.0,,0.0,None,0,,,79.08584449999944,0.0004301000008126721,0.0004301000008126721,0.044449600000007194,79.14499969999997,,79.0972185999999,79.0972185999999,,,,,,,,,01,2025-08-21_14h02.06.839,standardStroop,2023.2.1,59.89243318974531,2025-08-21 14h02.19.944406 +0100,
52,0,52,0,79.15229089999957,,,,,,,,,,,,,,,,,79.14582599999994,53,red,red,1.0,m,79.15229089999957,79.15229089999957,80.24925970000004,nan,1.0980918999994174,0.0,,0.0,None,0,,,80.25309179999931,0.0006957000005058944,0.0006957000005058944,0.04495099999985541,80.31730409999909,,80.26442479999969,80.26442479999969,,,,,,,,,01,2025-08-21_14h02.06.839,standardStroop,2023.2.1,59.89243318974531,2025-08-21 14h02.19.944406 +0100,
53,0,53,0,80.33305569999902,,,,,,,,,,,,,,,,,80.31916289999936,54,blue,blue,1.0,l,80.33305569999902,80.33305569999902,81.41549250000025,nan,1.0980918999994174,0.0,,0.0,None,0,,,81.41795909999928,0.000562299999728566,0.000562299999728566,0.046075700000073994,81.47641060000024,,81.4308306999992,81.4308306999992,,,,,,,,,01,2025-08-21_14h02.06.839,standardStroop,2023.2.1,59.89243318974531,2025-08-21 14h02.19.944406 +0100,
54,0,54,0,81.49480140000014,,,,,,,,,,,,,,,,,81.47848859999976,55,yellow,green,0.0,c,81.49480140000014,81.49480140000014,82.58232820000012,nan,1.0980918999994174,0.0,,0.0,None,0,,,82.5856447999995,0.0006351000010909047,0.0006351000010909047,0.04543290000037814,82.6466719,,82.5975443999996,82.5975443999996,,,,,,,,,01,2025-08-21_14h02.06.839,standardStroop,2023.2.1,59.89243318974531,2025-08-21 14h02.19.944406 +0100,
55,0,55,0,82.6662639999995,,,,,,,,,,,,,,,,,82.64874849999978,56,red,blue,0.0,l,82.6662639999995,82.6662639999995,83.74946900000032,nan,1.0980918999994174,0.0,,0.0,None,0,,,83.7532768000001,0.0008807999984128401,0.0008807999984128401,0.0446111999990535,83.81689539999934,,83.76409439999952,83.76409439999952,,,,,,,,,01,2025-08-21_14h02.06.839,standardStroop,2023.2.1,59.89243318974531,2025-08-21 14h02.19.944406 +0100,
56,0,56,0,83.83636189999925,,,,,,,,,,,,,,,,,83.81883819999894,57,green,green,1.0,c,83.83636189999925,83.83636189999925,84.93234019999909,nan,1.0980918999994174,0.0,,0.0,None,0,,,84.93575779999992,0.0005870000004506437,0.0005870000004506437,0.04513539999970817,84.99642649999987,,84.94721919999938,84.94721919999938,,,,,,,,,01,2025-08-21_14h02.06.839,standardStroop,2023.2.1,59.89243318974531,2025-08-21 14h02.19.944406 +0100,
57,0,57,0,85.01397109999925,,,,,,,,,,,,,,,,,84.99842530000024,58,blue,blue,1.0,l,85.01397109999925,85.01397109999925,86.09899229999974,nan,1.0980918999994174,0.0,,0.0,None,0,,,86.10264929999903,0.000750399998651119,0.000750399998651119,0.04492219999883673,86.16720759999953,,86.1137620999998,86.1137620999998,,,,,,,,,01,2025-08-21_14h02.06.839,standardStroop,2023.2.1,59.89243318974531,2025-08-21 14h02.19.944406 +0100,
58,0,58,0,86.18592279999939,,,,,,,,,,,,,,,,,86.16902800000025,59,yellow,green,0.0,c,86.18592279999939,86.18592279999939,86.25021269999888,l,1.0980918999994174,0.0,0.04549159999987751,0.0,l,0,0.04549159999987751,None,86.25580749999972,0.0011282000014034566,0.0011282000014034566,1.0436039000014716,87.30087789999925,,,,,,,,,,,,01,2025-08-21_14h02.06.839,standardStroop,2023.2.1,59.89243318974531,2025-08-21 14h02.19.944406 +0100,
59,0,59,0,87.31881959999919,,,,,,,,,,,,,,,,,87.3027003999996,60,red,red,1.0,m,87.31881959999919,87.31881959999919,87.90004789999875,m,1.0980918999994174,1.0,0.5681497000005038,0.0,m,1,0.5681497000005038,None,87.9058812000003,0.0008237999991251854,0.0008237999991251854,0.5169041999997717,88.43021120000049,0.5681497000005038,,,,,,,,,,,01,2025-08-21_14h02.06.839,standardStroop,2023.2.1,59.89243318974531,2025-08-21 14h02.19.944406 +0100,
60,0,60,0,88.44662479999897,,,,,,,,,,,,,,,,,88.43090859999938,61,green,green,1.0,c,88.44662479999897,88.44662479999897,88.90004289999888,c,1.0980918999994174,1.0,0.4469019999996817,0.0,c,1,0.4469019999996817,None,88.9062130000002,0.0010462999998708256,0.0010462999998708256,0.6429330000009941,89.55096239999875,0.4469019999996817,,,,,,,,,,,01,2025-08-21_14h02.06.839,standardStroop,2023.2.1,59.89243318974531,2025-08-21 14h02.19.944406 +0100,
61,0,61,0,89.56869749999896,,,,,,,,,,,,,,,,,89.55273239999951,62,blue,red,0.0,m,89.56869749999896,89.56869749999896,90.3161928999998,m,1.0980918999994174,1.0,0.7425978999999643,0.0,m,1,0.7425978999999643,None,90.3218412999995,0.0008374999997613486,0.0008374999997613486,0.3454615999999078,90.67362700000012,0.7425978999999643,,,,,,,,,,,01,2025-08-21_14h02.06.839,standardStroop,2023.2.1,59.89243318974531,2025-08-21 14h02.19.944406 +0100,
62,0,62,0,90.69152880000001,,,,,,,,,,,,,,,,,90.67575769999894,63,green,green,1.0,c,90.69152880000001,90.69152880000001,91.1481547000003,c,1.0980918999994174,1.0,0.45428850000098464,0.0,c,1,0.45428850000098464,None,91.15147979999892,0.00041600000076869037,0.00041600000076869037,0.63401420000082,91.79143250000016,0.45428850000098464,,,,,,,,,,,01,2025-08-21_14h02.06.839,standardStroop,2023.2.1,59.89243318974531,2025-08-21 14h02.19.944406 +0100,
63,0,63,0,91.8105859999996,,,,,,,,,,,,,,,,,91.79336309999962,64,red,red,1.0,m,91.8105859999996,91.8105859999996,92.28346539999984,m,1.0980918999994174,1.0,0.45972359999905166,0.0,m,1,0.45972359999905166,None,92.28994029999922,0.0008754999998927815,0.0008754999998927815,0.6288319999985106,92.92481579999912,0.45972359999905166,,,,,,,,,,,01,2025-08-21_14h02.06.839,standardStroop,2023.2.1,59.89243318974531,2025-08-21 14h02.19.944406 +0100,
64,0,64,0,92.94204170000012,,,,,,,,,,,,,,,,,92.92658589999883,65,green,blue,0.0,l,92.94204170000012,92.94204170000012,93.34980480000013,l,1.0980918999994174,1.0,0.3995270999985223,0.0,l,1,0.3995270999985223,None,93.35402609999983,0.0008224000011978205,0.0008224000011978205,0.6878252000005887,94.04665959999875,0.3995270999985223,,,,,,,,,,,01,2025-08-21_14h02.06.839,standardStroop,2023.2.1,59.89243318974531,2025-08-21 14h02.19.944406 +0100,
65,0,65,0,94.05758819999937,,,,,,,,,,,,,,,,,94.04770859999917,66,red,red,1.0,m,94.05758819999937,94.05758819999937,94.51563119999992,m,1.0980918999994174,1.0,0.45399080000061076,0.0,m,1,0.45399080000061076,None,94.52134730000034,0.0007150000001274748,0.0007150000001274748,0.6347077999998874,95.16212319999977,0.45399080000061076,,,,,,,,,,,01,2025-08-21_14h02.06.839,standardStroop,2023.2.1,59.89243318974531,2025-08-21 14h02.19.944406 +0100,
66,0,66,0,95.17591609999909,,,,,,,,,,,,,,,,,95.16361089999918,67,blue,yellow,0.0,s,95.17591609999909,95.17591609999909,95.63222109999879,s,1.0980918999994174,1.0,0.447899700000562,0.0,s,1,0.447899700000562,None,95.63636810000025,0.0005450000007840572,0.0005450000007840572,0.6399682000010216,96.28093529999933,0.447899700000562,,,,,,,,,,,01,2025-08-21_14h02.06.839,standardStroop,2023.2.1,59.89243318974531,2025-08-21 14h02.19.944406 +0100,
67,0,67,0,96.29265979999946,,,,,,,,,,,,,,,,,96.28216749999956,68,red,red,1.0,m,96.29265979999946,96.29265979999946,96.73219889999928,m,1.0980918999994174,1.0,0.43342110000048706,0.0,m,1,0.43342110000048706,None,96.73730539999997,0.0007521000006818213,0.0007521000006818213,0.6540867000003345,97.39671439999984,0.43342110000048706,,,,,,,,,,,01,2025-08-21_14h02.06.839,standardStroop,2023.2.1,59.89243318974531,2025-08-21 14h02.19.944406 +0100,
68,0,68,0,97.40781029999926,,,,,,,,,,,,,,,,,97.39791680000053,69,blue,yellow,0.0,s,97.40781029999926,97.40781029999926,97.84858299999905,c,1.0980918999994174,0.0,0.4274449000004097,0.0,c,0,0.4274449000004097,None,97.85467789999893,0.000965199998972821,0.000965199998972821,0.6612396000000444,98.52149859999918,,,,,,,,,,,,01,2025-08-21_14h02.06.839,standardStroop,2023.2.1,59.89243318974531,2025-08-21 14h02.19.944406 +0100,
69,0,69,0,98.53628969999954,,,,,,,,,,,,,,,,,98.52284849999887,70,red,red,1.0,m,98.53628969999954,98.53628969999954,99.0165049999996,m,1.0980918999994174,1.0,0.46968159999960335,0.0,m,1,0.46968159999960335,None,99.02231570000004,0.0007956999997986713,0.0007956999997986713,0.6187401000006503,99.64267870000003,0.46968159999960335,,,,,,,,,,,01,2025-08-21_14h02.06.839,standardStroop,2023.2.1,59.89243318974531,2025-08-21 14h02.19.944406 +0100,
70,0,70,0,99.66261669999949,,,,,,,,,,,,,,,,,99.64452270000038,71,green,green,1.0,c,99.66261669999949,99.66261669999949,100.13284369999928,c,1.0980918999994174,1.0,0.4564485999999306,0.0,c,1,0.4564485999999306,None,100.13960179999958,0.000736099998903228,0.000736099998903228,0.6316017999997712,100.77258099999926,0.4564485999999306,,,,,,,,,,,01,2025-08-21_14h02.06.839,standardStroop,2023.2.1,59.89243318974531,2025-08-21 14h02.19.944406 +0100,
71,0,71,0,100.78739159999895,,,,,,,,,,,,,,,,,100.77373559999978,72,red,yellow,0.0,s,100.78739159999895,100.78739159999895,101.23273019999942,s,1.0980918999994174,1.0,0.43880759999956354,0.0,s,1,0.43880759999956354,None,101.23920580000049,0.0010962000014842488,0.0010962000014842488,0.6495586000000912,101.89348020000034,0.43880759999956354,,,,,,,,,,,01,2025-08-21_14h02.06.839,standardStroop,2023.2.1,59.89243318974531,2025-08-21 14h02.19.944406 +0100,
72,0,72,0,101.90815979999934,,,,,,,,,,,,,,,,,101.89482130000033,73,blue,green,0.0,c,101.90815979999934,101.90815979999934,102.36531669999931,c,1.0980918999994174,1.0,0.45253840000077616,0.0,c,1,0.45253840000077616,None,102.36993760000041,0.0006560000001627486,0.0006560000001627486,0.6339296999994986,103.00882549999915,0.45253840000077616,,,,,,,,,,,01,2025-08-21_14h02.06.839,standardStroop,2023.2.1,59.89243318974531,2025-08-21 14h02.19.944406 +0100,
73,0,73,0,103.02135780000026,,,,,,,,,,,,,,,,,103.01011759999892,74,green,green,1.0,c,103.02135780000026,103.02135780000026,103.48009599999932,c,1.0980918999994174,1.0,0.4427154999993945,0.0,c,1,0.4427154999993945,None,103.48242029999892,0.00028449999990698416,0.00028449999990698416,0.644966600000771,104.13619870000002,0.4427154999993945,,,,,,,,,,,01,2025-08-21_14h02.06.839,standardStroop,2023.2.1,59.89243318974531,2025-08-21 14h02.19.944406 +0100,
74,0,74,0,104.14610429999993,,,,,,,,,,,,,,,,,104.13729140000032,75,blue,yellow,0.0,s,104.14610429999993,104.14610429999993,104.59806039999967,s,1.0980918999994174,1.0,0.4471928000002663,0.0,s,1,0.4471928000002663,None,104.60163569999895,0.00046269999984360766,0.00046269999984360766,0.6402426000004198,105.2476917999993,0.4471928000002663,,,,,,,,,,,01,2025-08-21_14h02.06.839,standardStroop,2023.2.1,59.89243318974531,2025-08-21 14h02.19.944406 +0100,
75,0,75,0,105.26568459999908,,,,,,,,,,,,,,,,,105.2496071000005,76,green,red,0.0,m,105.26568459999908,105.26568459999908,105.8658861999993,m,1.0980918999994174,1.0,0.5890183000010438,0.0,m,1,0.5890183000010438,None,105.871873099999,0.0008386999998037936,0.0008386999998037936,0.4989012999994884,106.37647319999996,0.5890183000010438,,,,,,,,,,,01,2025-08-21_14h02.06.839,standardStroop,2023.2.1,59.89243318974531,2025-08-21 14h02.19.944406 +0100,
76,0,76,0,106.39204529999915,,,,,,,,,,,,,,,,,106.3781125000005,77,red,red,1.0,m,106.39204529999915,106.39204529999915,106.83078729999943,m,1.0980918999994174,1.0,0.4289963000010175,0.0,m,1,0.4289963000010175,None,106.83572739999909,0.000776400000177091,0.000776400000177091,0.6600047000010818,107.49894219999987,0.4289963000010175,,,,,,,,,,,01,2025-08-21_14h02.06.839,standardStroop,2023.2.1,59.89243318974531,2025-08-21 14h02.19.944406 +0100,
77,0,77,0,107.51240060000055,,,,,,,,,,,,,,,,,107.4997499000001,78,yellow,yellow,1.0,s,107.51240060000055,107.51240060000055,107.98148459999902,s,1.0980918999994174,1.0,0.4541337000009662,0.0,s,1,0.4541337000009662,None,107.98715830000037,0.0008723000009922544,0.0008723000009922544,0.6337532000015926,108.62589879999905,0.4541337000009662,,,,,,,,,,,01,2025-08-21_14h02.06.839,standardStroop,2023.2.1,59.89243318974531,2025-08-21 14h02.19.944406 +0100,
78,0,78,0,108.63999460000014,,,,,,,,,,,,,,,,,108.62767890000032,79,blue,red,0.0,m,108.63999460000014,108.63999460000014,109.08086849999927,m,1.0980918999994174,1.0,0.43001949999961653,0.0,m,1,0.43001949999961653,None,109.08502959999896,0.00044950000119570177,0.00044950000119570177,0.6584775000010268,109.74792259999958,0.43001949999961653,,,,,,,,,,,01,2025-08-21_14h02.06.839,standardStroop,2023.2.1,59.89243318974531,2025-08-21 14h02.19.944406 +0100,
79,0,79,0,109.76049559999956,,,,,,,,,,,,,,,,,109.74930119999954,80,yellow,yellow,1.0,s,109.76049559999956,109.76049559999956,110.17979579999883,s,1.0980918999994174,1.0,0.4156507000006968,0.0,s,1,0.4156507000006968,None,110.18196869999883,0.0003166999995301012,0.0003166999995301012,0.6704965000008087,110.86300649999976,0.4156507000006968,,,,,,,,,,,01,2025-08-21_14h02.06.839,standardStroop,2023.2.1,59.89243318974531,2025-08-21 14h02.19.944406 +0100,
80,0,80,0,110.87916769999902,,,,,,,,,,,,,,,,,110.86414879999938,81,green,blue,0.0,l,110.87916769999902,110.87916769999902,111.61514220000026,l,1.0980918999994174,1.0,0.7260107000001881,0.0,l,1,0.7260107000001881,None,111.62124029999904,0.0007918000010249671,0.0007918000010249671,0.36123070000030566,111.98679929999889,0.7260107000001881,,,,,,,,,,,01,2025-08-21_14h02.06.839,standardStroop,2023.2.1,59.89243318974531,2025-08-21 14h02.19.944406 +0100,
81,0,81,0,111.99776360000033,,,,,,,,,,,,,,,,,111.98806089999925,82,red,green,0.0,c,111.99776360000033,111.99776360000033,112.73148310000033,m,1.0980918999994174,0.0,0.7227349000004324,0.0,m,0,0.7227349000004324,None,112.73592230000031,0.0006052000007912284,0.0006052000007912284,0.36380989999997837,113.11305770000035,,,,,,,,,,,,01,2025-08-21_14h02.06.839,standardStroop,2023.2.1,59.89243318974531,2025-08-21 14h02.19.944406 +0100,
82,0,82,0,113.12864660000014,,,,,,,,,,,,,,,,,113.11450650000006,83,green,green,1.0,c,113.12864660000014,113.12864660000014,113.84876280000026,c,1.0980918999994174,1.0,0.7030360999997356,0.0,c,1,0.7030360999997356,None,113.8549955999988,0.0008861999995133374,0.0008861999995133374,0.3846374000004289,114.2410746000005,0.7030360999997356,,,,,,,,,,,01,2025-08-21_14h02.06.839,standardStroop,2023.2.1,59.89243318974531,2025-08-21 14h02.19.944406 +0100,
83,0,83,0,114.25592609999876,,,,,,,,,,,,,,,,,114.24269119999917,84,blue,yellow,0.0,s,114.25592609999876,114.25592609999876,114.74829390000014,s,1.0980918999994174,1.0,0.48571829999855254,0.0,s,1,0.48571829999855254,None,114.75455089999923,0.0011121000006824033,0.0011121000006824033,0.6029151000002457,115.35907059999954,0.48571829999855254,,,,,,,,,,,01,2025-08-21_14h02.06.839,standardStroop,2023.2.1,59.89243318974531,2025-08-21 14h02.19.944406 +0100,
84,0,84,0,115.38208049999957,,,,,,,,,,,,,,,,,115.36091579999993,85,red,red,1.0,m,115.38208049999957,115.38208049999957,115.8152527000002,m,1.0980918999994174,1.0,0.4259283999999752,0.0,m,1,0.4259283999999752,None,115.82165209999948,0.0008862000013323268,0.0008862000013323268,0.6617844000011246,116.48764370000026,0.4259283999999752,,,,,,,,,,,01,2025-08-21_14h02.06.839,standardStroop,2023.2.1,59.89243318974531,2025-08-21 14h02.19.944406 +0100,
85,0,85,0,116.49817409999923,,,,,,,,,,,,,,,,,116.48845799999981,86,yellow,yellow,1.0,s,116.49817409999923,116.49817409999923,116.98138089999884,s,1.0980918999994174,1.0,0.4649952999989182,0.0,s,1,0.4649952999989182,None,116.98670469999888,0.0006733999998687068,0.0006733999998687068,0.6215862999997626,117.61311190000015,0.4649952999989182,,,,,,,,,,,01,2025-08-21_14h02.06.839,standardStroop,2023.2.1,59.89243318974531,2025-08-21 14h02.19.944406 +0100,
86,0,86,0,117.62120089999917,,,,,,,,,,,,,,,,,117.61381009999968,87,red,green,0.0,c,117.62120089999917,117.62120089999917,118.08030729999882,c,1.0980918999994174,1.0,0.44291420000081416,0.0,c,1,0.44291420000081416,None,118.08498089999921,0.0005338000009942334,0.0005338000009942334,0.6441568000009283,118.73523840000053,0.44291420000081416,,,,,,,,,,,01,2025-08-21_14h02.06.839,standardStroop,2023.2.1,59.89243318974531,2025-08-21 14h02.19.944406 +0100,
87,0,87,0,118.75385979999919,,,,,,,,,,,,,,,,,118.73709529999905,88,green,green,1.0,c,118.75385979999919,118.75385979999919,119.84659949999877,nan,1.0980918999994174,0.0,,0.0,None,0,,,119.84905059999983,0.0004977000007784227,0.0004977000007784227,0.046441099999356084,119.91642030000003,,119.86193479999929,119.86193479999929,,,,,,,,,01,2025-08-21_14h02.06.839,standardStroop,2023.2.1,59.89243318974531,2025-08-21 14h02.19.944406 +0100,
88,0,88,0,119.93551079999997,,,,,,,,,,,,,,,,,119.91837619999933,89,yellow,red,0.0,m,119.93551079999997,119.93551079999997,121.0299412000004,nan,1.0980918999994174,0.0,,0.0,None,0,,,121.0320202999992,0.00035260000004200265,0.00035260000004200265,0.04662900000039372,121.09636959999989,,121.0455108999995,121.0455108999995,,,,,,,,,01,2025-08-21_14h02.06.839,standardStroop,2023.2.1,59.89243318974531,2025-08-21 14h02.19.944406 +0100,
89,0,89,0,121.10969870000008,,,,,,,,,,,,,,,,,121.0982340999999,90,green,green,1.0,c,121.10969870000008,121.10969870000008,122.19666349999898,nan,1.0980918999994174,0.0,,0.0,None,0,,,122.19841379999889,0.0003544999999576248,0.0003544999999576248,0.04685129999961646,122.26606390000052,,122.21183380000002,122.21183380000002,,,,,,,,,01,2025-08-21_14h02.06.839,standardStroop,2023.2.1,59.89243318974531,2025-08-21 14h02.19.944406 +0100,
90,0,90,0,122.27505249999922,,,,,,,,,,,,,,,,,122.26700379999966,91,blue,red,0.0,m,122.27505249999922,122.27505249999922,123.36263820000022,nan,1.0980918999994174,0.0,,0.0,None,0,,,123.36450839999998,0.0003482000010990305,0.0003482000010990305,0.04726040000059584,123.42599239999981,,123.37824659999933,123.37824659999933,,,,,,,,,01,2025-08-21_14h02.06.839,standardStroop,2023.2.1,59.89243318974531,2025-08-21 14h02.19.944406 +0100,
91,0,91,0,123.43743249999898,,,,,,,,,,,,,,,,,123.42723389999992,92,red,green,0.0,c,123.43743249999898,123.43743249999898,124.52943149999919,nan,1.0980918999994174,0.0,,0.0,None,0,,,124.53166190000047,0.00043680000089807436,0.00043680000089807436,0.04682690000117873,124.59619980000025,,124.54509529999996,124.54509529999996,,,,,,,,,01,2025-08-21_14h02.06.839,standardStroop,2023.2.1,59.89243318974531,2025-08-21 14h02.19.944406 +0100,
92,0,92,0,124.60610499999893,,,,,,,,,,,,,,,,,124.59700169999996,93,yellow,yellow,1.0,s,124.60610499999893,124.60610499999893,125.69656609999947,nan,1.0980918999994174,0.0,,0.0,None,0,,,125.69972029999917,0.0006240000002435409,0.0006240000002435409,0.04572279999956663,125.76667610000004,,125.71163329999945,125.71163329999945,,,,,,,,,01,2025-08-21_14h02.06.839,standardStroop,2023.2.1,59.89243318974531,2025-08-21 14h02.19.944406 +0100,
93,0,93,0,125.79135089999909,,,,,,,,,,,,,,,,,125.7684995999989,94,green,blue,0.0,l,125.79135089999909,125.79135089999909,126.87901210000018,nan,1.0980918999994174,0.0,,0.0,None,0,,,126.88056469999901,0.0002655000007507624,0.0002655000007507624,0.047607299999071984,126.94577449999997,,126.8948208999991,126.8948208999991,,,,,,,,,01,2025-08-21_14h02.06.839,standardStroop,2023.2.1,59.89243318974531,2025-08-21 14h02.19.944406 +0100,
94,0,94,0,126.95869689999927,,,,,,,,,,,,,,,,,126.9470497000002,95,red,red,1.0,m,126.95869689999927,126.95869689999927,128.04595100000006,nan,1.0980918999994174,0.0,,0.0,None,0,,,128.04862979999962,0.00037259999953676015,0.00037259999953676015,0.04622369999924558,128.10724149999987,,128.06161939999947,128.06161939999947,,,,,,,,,01,2025-08-21_14h02.06.839,standardStroop,2023.2.1,59.89243318974531,2025-08-21 14h02.19.944406 +0100,
95,0,95,0,128.12174009999944,,,,,,,,,,,,,,,,,128.10899289999907,96,green,yellow,0.0,s,128.12174009999944,128.12174009999944,129.21257279999918,nan,1.0980918999994174,0.0,,0.0,None,0,,,129.2170757999993,0.0009069999996427214,0.0009069999996427214,0.04430989999855228,129.2754907999988,,129.22795509999924,129.22795509999924,,,,,,,,,01,2025-08-21_14h02.06.839,standardStroop,2023.2.1,59.89243318974531,2025-08-21 14h02.19.944406 +0100,
96,0,96,0,129.28378479999992,,,,,,,,,,,,,,,,,129.27617250000003,97,red,red,1.0,m,129.28378479999992,129.28378479999992,130.37889129999894,nan,1.0980918999994174,0.0,,0.0,None,0,,,130.38058509999973,0.0005185999998502666,0.0005185999998502666,0.04732069999954547,130.44641559999945,,130.39461019999908,130.39461019999908,,,,,,,,,01,2025-08-21_14h02.06.839,standardStroop,2023.2.1,59.89243318974531,2025-08-21 14h02.19.944406 +0100,
97,0,97,0,130.4560081999989,,,,,,,,,,,,,,,,,130.44782879999912,98,yellow,yellow,1.0,s,130.4560081999989,130.4560081999989,131.54588929999954,nan,1.0980918999994174,0.0,,0.0,None,0,,,131.54851039999994,0.0006082999989303062,0.0006082999989303062,0.04647029999978258,131.61592999999993,,131.56130250000024,131.56130250000024,,,,,,,,,01,2025-08-21_14h02.06.839,standardStroop,2023.2.1,59.89243318974531,2025-08-21 14h02.19.944406 +0100,
98,0,98,0,131.6263197999997,,,,,,,,,,,,,,,,,131.6171560999992,99,red,blue,0.0,l,131.6263197999997,131.6263197999997,132.7122619999991,nan,1.0980918999994174,0.0,,0.0,None,0,,,132.7150657000002,0.0007146999996621162,0.0007146999996621162,0.046246899999459856,132.77574699999968,,132.7279825000005,132.7279825000005,,,,,,,,,01,2025-08-21_14h02.06.839,standardStroop,2023.2.1,59.89243318974531,2025-08-21 14h02.19.944406 +0100,
99,0,99,0,132.78847849999875,,,,,,,,,,,,,,,,,132.7769931999992,100,blue,blue,1.0,l,132.78847849999875,132.78847849999875,133.88007509999989,nan,1.0980918999994174,0.0,,0.0,None,0,,,133.88426660000005,0.0007691000009799609,0.0007691000009799609,0.0441571000010299,133.94626380000045,,133.89483549999932,133.89483549999932,,,,,,,,,01,2025-08-21_14h02.06.839,standardStroop,2023.2.1,59.89243318974531,2025-08-21 14h02.19.944406 +0100,
100,0,100,0,133.9621600999999,,,,,,,,,,,,,,,,,133.94803069999944,101,yellow,yellow,1.0,s,133.9621600999999,133.9621600999999,135.0460149999999,nan,1.0980918999994174,0.0,,0.0,None,0,,,135.04822710000008,0.00042829999983950984,0.00042829999983950984,0.046387600001253304,135.1055139,,135.06097649999901,135.06097649999901,,,,,,,,,01,2025-08-21_14h02.06.839,standardStroop,2023.2.1,59.89243318974531,2025-08-21 14h02.19.944406 +0100,
101,0,101,0,135.11899509999967,,,,,,,,,,,,,,,,,135.10717470000054,102,green,red,0.0,m,135.11899509999967,135.11899509999967,136.21274149999954,nan,1.0980918999994174,0.0,,0.0,None,0,,,136.2164006999992,0.0008278999994217884,0.0008278999994217884,0.044829500000560074,136.2759102,,136.22757769999953,136.22757769999953,,,,,,,,,01,2025-08-21_14h02.06.839,standardStroop,2023.2.1,59.89243318974531,2025-08-21 14h02.19.944406 +0100,
102,0,102,0,136.29295040000034,,,,,,,,,,,,,,,,,136.27811929999916,103,yellow,blue,0.0,l,136.29295040000034,136.29295040000034,137.37847770000008,nan,1.0980918999994174,0.0,,0.0,None,0,,,137.38055480000003,0.0003287999988970114,0.0003287999988970114,0.047086900000067544,137.44596269999965,,137.39436679999926,137.39436679999926,,,,,,,,,01,2025-08-21_14h02.06.839,standardStroop,2023.2.1,59.89243318974531,2025-08-21 14h02.19.944406 +0100,
103,0,103,0,137.45899970000028,,,,,,,,,,,,,,,,,137.44762319999973,104,green,green,1.0,c,137.45899970000028,137.45899970000028,138.54562179999994,nan,1.0980918999994174,0.0,,0.0,None,0,,,138.54833979999967,0.0005682999999407912,0.0005682999999407912,0.04593320000094536,138.6064525999991,,138.56101800000033,138.56101800000033,,,,,,,,,01,2025-08-21_14h02.06.839,standardStroop,2023.2.1,59.89243318974531,2025-08-21 14h02.19.944406 +0100,
104,0,104,0,138.62180570000055,,,,,,,,,,,,,,,,,138.60832819999996,105,blue,yellow,0.0,s,138.62180570000055,138.62180570000055,139.71244320000005,nan,1.0980918999994174,0.0,,0.0,None,0,,,139.71507439999914,0.0004516000008152332,0.0004516000008152332,0.045934900001157075,139.77633799999967,,139.72771920000014,139.72771920000014,,,,,,,,,01,2025-08-21_14h02.06.839,standardStroop,2023.2.1,59.89243318974531,2025-08-21 14h02.19.944406 +0100,
105,0,105,0,139.79029850000006,,,,,,,,,,,,,,,,,139.7786698,106,yellow,green,0.0,c,139.79029850000006,139.79029850000006,140.8790941999996,nan,1.0980918999994174,0.0,,0.0,None,0,,,140.8818365999996,0.0005335999994713347,0.0005335999994713347,0.04589970000051835,140.9466885999991,,140.89428849999967,140.89428849999967,,,,,,,,,01,2025-08-21_14h02.06.839,standardStroop,2023.2.1,59.89243318974531,2025-08-21 14h02.19.944406 +0100,
106,0,106,0,140.95549819999906,,,,,,,,,,,,,,,,,140.94777629999953,107,green,green,1.0,c,140.95549819999906,140.95549819999906,142.04496649999965,nan,1.0980918999994174,0.0,,0.0,None,0,,,142.04752629999894,0.0004582999990816461,0.0004582999990816461,0.046600100000432576,142.10642069999994,,142.06067540000004,142.06067540000004,,,,,,,,,01,2025-08-21_14h02.06.839,standardStroop,2023.2.1,59.89243318974531,2025-08-21 14h02.19.944406 +0100,
107,0,107,0,142.12528799999927,,,,,,,,,,,,,,,,,142.10822449999978,108,yellow,yellow,1.0,s,142.12528799999927,142.12528799999927,143.21188359999906,nan,1.0980918999994174,0.0,,0.0,None,0,,,143.2141302,0.00036499999987427145,0.00036499999987427145,0.04663070000060543,143.2773101999992,,143.2271968999994,143.2271968999994,,,,,,,,,01,2025-08-21_14h02.06.839,standardStroop,2023.2.1,59.89243318974531,2025-08-21 14h02.19.944406 +0100,
108,0,108,0,143.2897541000002,,,,,,,,,,,,,,,,,143.27816200000052,109,red,blue,0.0,l,143.2897541000002,143.2897541000002,144.37863449999895,nan,1.0980918999994174,0.0,,0.0,None,0,,,144.38103339999907,0.0005203000000619795,0.0005203000000619795,0.04662740000094345,144.44587150000007,,144.39386159999958,144.39386159999958,,,,,,,,,01,2025-08-21_14h02.06.839,standardStroop,2023.2.1,59.89243318974531,2025-08-21 14h02.19.944406 +0100,
109,0,109,0,144.45520620000025,,,,,,,,,,,,,,,,,144.44688809999934,110,yellow,green,0.0,c,144.45520620000025,144.45520620000025,145.54501600000003,nan,1.0980918999994174,0.0,,0.0,None,0,,,145.54696019999938,0.0003851000001304783,0.0003851000001304783,0.0469931000006909,145.60628759999963,,145.56033840000055,145.56033840000055,,,,,,,,,01,2025-08-21_14h02.06.839,standardStroop,2023.2.1,59.89243318974531,2025-08-21 14h02.19.944406 +0100,
110,0,110,0,145.61957660000007,,,,,,,,,,,,,,,,,145.60798739999882,111,red,red,1.0,m,145.61957660000007,145.61957660000007,146.7116434999989,nan,1.0980918999994174,0.0,,0.0,None,0,,,146.71376289999898,0.0004429000000527594,0.0004429000000527594,0.0468405999999959,146.77602939999997,,146.72710069999994,146.72710069999994,,,,,,,,,01,2025-08-21_14h02.06.839,standardStroop,2023.2.1,59.89243318974531,2025-08-21 14h02.19.944406 +0100,
111,0,111,0,146.78705059999993,,,,,,,,,,,,,,,,,146.7774712999999,112,green,green,1.0,c,146.78705059999993,146.78705059999993,147.87851839999894,nan,1.0980918999994174,0.0,,0.0,None,0,,,147.8804369999998,0.000459999999293359,0.000459999999293359,0.04676349999863305,147.94612699999925,,147.89379460000055,147.89379460000055,,,,,,,,,01,2025-08-21_14h02.06.839,standardStroop,2023.2.1,59.89243318974531,2025-08-21 14h02.19.944406 +0100,
112,0,112,0,147.95986149999953,,,,,,,,,,,,,,,,,147.9476870999988,113,yellow,blue,0.0,l,147.95986149999953,147.95986149999953,149.04441260000021,nan,1.0980918999994174,0.0,,0.0,None,0,,,149.04597739999917,0.00029319999885046855,0.00029319999885046855,0.04799300000013318,149.10620259999996,,149.06023079999977,149.06023079999977,,,,,,,,,01,2025-08-21_14h02.06.839,standardStroop,2023.2.1,59.89243318974531,2025-08-21 14h02.19.944406 +0100,
113,0,113,0,149.11728109999967,,,,,,,,,,,,,,,,,149.10753759999898,114,red,red,1.0,m,149.11728109999967,149.11728109999967,150.21165689999907,nan,1.0980918999994174,0.0,,0.0,None,0,,,150.21433419999994,0.0005292999994708225,0.0005292999994708225,0.0459988999991765,150.27604900000006,,150.22708039999998,150.22708039999998,,,,,,,,,01,2025-08-21_14h02.06.839,standardStroop,2023.2.1,59.89243318974531,2025-08-21 14h02.19.944406 +0100,
114,0,114,0,150.28627330000018,,,,,,,,,,,,,,,,,150.27744100000018,115,green,blue,0.0,l,150.28627330000018,150.28627330000018,151.3781528999989,nan,1.0980918999994174,0.0,,0.0,None,0,,,151.38015520000044,0.0007191999993665377,0.0007191999993665377,0.046803900000668364,151.4472582999988,,151.39351629999874,151.39351629999874,,,,,,,,,01,2025-08-21_14h02.06.839,standardStroop,2023.2.1,59.89243318974531,2025-08-21 14h02.19.944406 +0100,
115,0,115,0,151.45778900000005,,,,,,,,,,,,,,,,,151.44853589999911,116,blue,red,0.0,m,151.45778900000005,151.45778900000005,152.54436309999983,nan,1.0980918999994174,0.0,,0.0,None,0,,,152.5458798999989,0.00031850000050326344,0.00031850000050326344,0.047771600000487524,152.6056123999988,,152.5601272999993,152.5601272999993,,,,,,,,,01,2025-08-21_14h02.06.839,standardStroop,2023.2.1,59.89243318974531,2025-08-21 14h02.19.944406 +0100,
116,0,116,0,152.6176704999998,,,,,,,,,,,,,,,,,152.60748760000024,117,yellow,yellow,1.0,s,152.6176704999998,152.6176704999998,153.71181389999947,nan,1.0980918999994174,0.0,,0.0,None,0,,,153.71447429999898,0.0005239999991317745,0.0005239999991317745,0.045746599998892634,153.7759033000002,,153.72663759999887,153.72663759999887,,,,,,,,,01,2025-08-21_14h02.06.839,standardStroop,2023.2.1,59.89243318974531,2025-08-21 14h02.19.944406 +0100,
117,0,117,0,153.7952624999998,,,,,,,,,,,,,,,,,153.7780803000005,118,red,red,1.0,m,153.7952624999998,153.7952624999998,154.87786679999954,nan,1.0980918999994174,0.0,,0.0,None,0,,,154.88059299999986,0.0005253999988781288,0.0005253999988781288,0.04609539999910339,154.94630469999902,,154.89329089999956,154.89329089999956,,,,,,,,,01,2025-08-21_14h02.06.839,standardStroop,2023.2.1,59.89243318974531,2025-08-21 14h02.19.944406 +0100,
118,0,118,0,154.955633399999,,,,,,,,,,,,,,,,,154.9477893000003,119,blue,yellow,0.0,s,154.955633399999,154.955633399999,156.0443078999997,nan,1.0980918999994174,0.0,,0.0,None,0,,,156.04711169999973,0.0006694999992760131,0.0006694999992760131,0.04646539999885135,156.1061912999994,,156.05997279999974,156.05997279999974,,,,,,,,,01,2025-08-21_14h02.06.839,standardStroop,2023.2.1,59.89243318974531,2025-08-21 14h02.19.944406 +0100,
119,0,119,0,156.1214285999995,,,,,,,,,,,,,,,,,156.10748109999986,120,red,green,0.0,c,156.1214285999995,156.1214285999995,157.2112122999988,nan,1.0980918999994174,0.0,,0.0,None,0,,,157.21436279999944,0.0006929999999556458,0.0006929999999556458,0.04576610000003711,157.27612229999977,,157.22673029999896,157.22673029999896,,,,,,,,,01,2025-08-21_14h02.06.839,standardStroop,2023.2.1,59.89243318974531,2025-08-21 14h02.19.944406 +0100,
120,0,120,0,157.28898739999931,,,,,,,,,,,,,,,,,157.27711119999913,121,green,green,1.0,c,157.28898739999931,157.28898739999931,158.1290269000001,c,1.0980918999994174,1.0,0.8326037000006181,0.0,c,1,0.8326037000006181,None,158.13473089999934,0.0005674999993061647,0.0005674999993061647,0.2542075000001205,158.393669699999,0.8326037000006181,,,,,,,,,,,01,2025-08-21_14h02.06.839,standardStroop,2023.2.1,59.89243318974531,2025-08-21 14h02.19.944406 +0100,
121,0,121,0,158.406003099999,,,,,,,,,,,,,,,,,158.39534540000022,122,yellow,blue,0.0,l,158.406003099999,158.406003099999,158.97848639999938,l,1.0980918999994174,1.0,0.557810000000245,0.0,l,1,0.557810000000245,None,158.98339269999997,0.0006063000000722241,0.0006063000000722241,0.5295189999997092,159.5171068999989,0.557810000000245,,,,,,,,,,,01,2025-08-21_14h02.06.839,standardStroop,2023.2.1,59.89243318974531,2025-08-21 14h02.19.944406 +0100,
122,0,122,0,159.52874119999979,,,,,,,,,,,,,,,,,159.51805109999987,123,blue,blue,1.0,l,159.52874119999979,159.52874119999979,159.99525469999935,l,1.0980918999994174,1.0,0.45497100000102364,0.0,l,1,0.45497100000102364,None,160.00077090000013,0.000731100000848528,0.000731100000848528,0.6329263000006904,160.63986060000025,0.45497100000102364,,,,,,,,,,,01,2025-08-21_14h02.06.839,standardStroop,2023.2.1,59.89243318974531,2025-08-21 14h02.19.944406 +0100,
123,0,123,0,160.6607082999999,,,,,,,,,,,,,,,,,160.64174699999967,124,red,yellow,0.0,s,160.6607082999999,160.6607082999999,161.06234349999977,s,1.0980918999994174,1.0,0.38684400000056485,0.0,s,1,0.38684400000056485,None,161.0684640999989,0.0006303999998635845,0.0006303999998635845,0.7015312000003178,161.77613240000028,0.38684400000056485,,,,,,,,,,,01,2025-08-21_14h02.06.839,standardStroop,2023.2.1,59.89243318974531,2025-08-21 14h02.19.944406 +0100,
124,0,124,0,161.78496489999998,,,,,,,,,,,,,,,,,161.77703409999958,125,blue,green,0.0,c,161.78496489999998,161.78496489999998,162.31207749999885,c,1.0980918999994174,1.0,0.5209102999997413,0.0,c,1,0.5209102999997413,None,162.31655909999972,0.0005201000003580702,0.0005201000003580702,0.5658948999989661,162.88733469999897,0.5209102999997413,,,,,,,,,,,01,2025-08-21_14h02.06.839,standardStroop,2023.2.1,59.89243318974531,2025-08-21 14h02.19.944406 +0100,
125,0,125,0,162.90000510000027,,,,,,,,,,,,,,,,,162.88863089999904,126,yellow,yellow,1.0,s,162.90000510000027,162.90000510000027,163.3289778999988,s,1.0980918999994174,1.0,0.42347220000010566,0.0,s,1,0.42347220000010566,None,163.33414859999903,0.0008801000003586523,0.0008801000003586523,0.6649384000011196,164.0050443,0.42347220000010566,,,,,,,,,,,01,2025-08-21_14h02.06.839,standardStroop,2023.2.1,59.89243318974531,2025-08-21 14h02.19.944406 +0100,
126,0,126,0,164.0215162000004,,,,,,,,,,,,,,,,,164.00691410000036,127,green,green,1.0,c,164.0215162000004,164.0215162000004,164.52945460000046,c,1.0980918999994174,1.0,0.49415380000027653,0.0,c,1,0.49415380000027653,None,164.53649649999898,0.0009191999997710809,0.0009191999997710809,0.5943537000002834,165.13188439999976,0.49415380000027653,,,,,,,,,,,01,2025-08-21_14h02.06.839,standardStroop,2023.2.1,59.89243318974531,2025-08-21 14h02.19.944406 +0100,
127,0,127,0,165.14262979999876,,,,,,,,,,,,,,,,,165.1329437000004,128,blue,yellow,0.0,s,165.14262979999876,165.14262979999876,165.54560329999913,s,1.0980918999994174,1.0,0.39801489999990736,0.0,s,1,0.39801489999990736,None,165.55129390000002,0.0007497000005969312,0.0007497000005969312,0.69109539999954,166.24384459999965,0.39801489999990736,,,,,,,,,,,01,2025-08-21_14h02.06.839,standardStroop,2023.2.1,59.89243318974531,2025-08-21 14h02.19.944406 +0100,
128,0,128,0,166.26014829999986,,,,,,,,,,,,,,,,,166.24571749999996,129,yellow,green,0.0,c,166.26014829999986,166.26014829999986,166.84496050000052,c,1.0980918999994174,1.0,0.5790789000002405,0.0,c,1,0.5790789000002405,None,166.8504596999992,0.0008388999995077029,0.0008388999995077029,0.5081076999995275,167.3641179999995,0.5790789000002405,,,,,,,,,,,01,2025-08-21_14h02.06.839,standardStroop,2023.2.1,59.89243318974531,2025-08-21 14h02.19.944406 +0100,
129,0,129,0,167.3811499000003,,,,,,,,,,,,,,,,,167.36582629999975,130,blue,blue,1.0,l,167.3811499000003,167.3811499000003,167.8444473999989,l,1.0980918999994174,1.0,0.45960099999865633,0.0,l,1,0.45960099999865633,None,167.84913119999874,0.0006794999990233919,0.0006794999990233919,0.6284079999986716,168.4815894000003,0.45960099999865633,,,,,,,,,,,01,2025-08-21_14h02.06.839,standardStroop,2023.2.1,59.89243318974531,2025-08-21 14h02.19.944406 +0100,
130,0,130,0,168.4937259999988,,,,,,,,,,,,,,,,,168.48278749999918,131,yellow,green,0.0,c,168.4937259999988,168.4937259999988,168.99525859999994,c,1.0980918999994174,1.0,0.48725150000063877,0.0,c,1,0.48725150000063877,None,169.00088940000023,0.00065320000067004,0.00065320000067004,0.6002305000001797,169.60476969999945,0.48725150000063877,,,,,,,,,,,01,2025-08-21_14h02.06.839,standardStroop,2023.2.1,59.89243318974531,2025-08-21 14h02.19.944406 +0100,
131,0,131,0,169.6166118000001,,,,,,,,,,,,,,,,,169.60580350000055,132,red,red,1.0,m,169.6166118000001,169.6166118000001,170.09475070000008,m,1.0980918999994174,1.0,0.47471170000062557,0.0,m,1,0.47471170000062557,None,170.10009530000025,0.0006802999996580184,0.0006802999996580184,0.6123284999994212,170.71755949999897,0.47471170000062557,,,,,,,,,,,01,2025-08-21_14h02.06.839,standardStroop,2023.2.1,59.89243318974531,2025-08-21 14h02.19.944406 +0100,
132,0,132,0,170.73018599999887,,,,,,,,,,,,,,,,,170.71928649999973,133,yellow,green,0.0,c,170.73018599999887,170.73018599999887,171.32793069999934,c,1.0980918999994174,1.0,0.5938407000012376,0.0,c,1,0.5938407000012376,None,171.33068090000052,0.0003447999988566153,0.0003447999988566153,0.49360129999877245,171.8322272000005,0.5938407000012376,,,,,,,,,,,01,2025-08-21_14h02.06.839,standardStroop,2023.2.1,59.89243318974531,2025-08-21 14h02.19.944406 +0100,
133,0,133,0,171.84418969999933,,,,,,,,,,,,,,,,,171.83294269999897,134,green,green,1.0,c,171.84418969999933,171.84418969999933,172.27885229999993,c,1.0980918999994174,1.0,0.4267065999993065,0.0,c,1,0.4267065999993065,None,172.28485290000026,0.0009514000012131874,0.0009514000012131874,0.6611659999998665,172.95224889999918,0.4267065999993065,,,,,,,,,,,01,2025-08-21_14h02.06.839,standardStroop,2023.2.1,59.89243318974531,2025-08-21 14h02.19.944406 +0100,
134,0,134,0,172.97147740000037,,,,,,,,,,,,,,,,,172.954939199999,135,blue,yellow,0.0,s,172.97147740000037,172.97147740000037,173.29624859999967,s,1.0980918999994174,1.0,0.32142860000021756,0.0,s,1,0.32142860000021756,None,173.30203819999952,0.0006424000002880348,0.0006424000002880348,0.7648284000006242,174.07205489999978,0.32142860000021756,,,,,,,,,,,01,2025-08-21_14h02.06.839,standardStroop,2023.2.1,59.89243318974531,2025-08-21 14h02.19.944406 +0100,
135,0,135,0,174.0821262999998,,,,,,,,,,,,,,,,,174.07275630000004,136,yellow,blue,0.0,l,174.0821262999998,174.0821262999998,174.54493879999973,l,1.0980918999994174,1.0,0.46050669999931415,0.0,l,1,0.46050669999931415,None,174.54924129999927,0.0006370999999489868,0.0006370999999489868,0.6261771999998018,175.1931337999995,0.46050669999931415,,,,,,,,,,,01,2025-08-21_14h02.06.839,standardStroop,2023.2.1,59.89243318974531,2025-08-21 14h02.19.944406 +0100,
136,0,136,0,175.20885830000043,,,,,,,,,,,,,,,,,175.19459459999962,137,blue,blue,1.0,l,175.20885830000043,175.20885830000043,175.6277283999989,l,1.0980918999994174,1.0,0.4118315000014263,0.0,l,1,0.4118315000014263,None,175.63195199999973,0.0006721000008838018,0.0006721000008838018,0.6753812000006292,176.3132482000001,0.4118315000014263,,,,,,,,,,,01,2025-08-21_14h02.06.839,standardStroop,2023.2.1,59.89243318974531,2025-08-21 14h02.19.944406 +0100,
137,0,137,0,176.32558450000033,,,,,,,,,,,,,,,,,176.31408139999985,138,yellow,green,0.0,c,176.32558450000033,176.32558450000033,176.827218299999,c,1.0980918999994174,1.0,0.48453280000103405,0.0,c,1,0.48453280000103405,None,176.8310081999989,0.00036109999928157777,0.00036109999928157777,0.6031798000003619,177.43946139999935,0.48453280000103405,,,,,,,,,,,01,2025-08-21_14h02.06.839,standardStroop,2023.2.1,59.89243318974531,2025-08-21 14h02.19.944406 +0100,
138,0,138,0,177.45625139999902,,,,,,,,,,,,,,,,,177.44126189999952,139,red,red,1.0,m,177.45625139999902,177.45625139999902,177.99502009999924,m,1.0980918999994174,1.0,0.522421800000302,0.0,m,1,0.522421800000302,None,177.9995428000002,0.0006088999998610234,0.0006088999998610234,0.5665239000009024,178.57183049999912,0.522421800000302,,,,,,,,,,,01,2025-08-21_14h02.06.839,standardStroop,2023.2.1,59.89243318974531,2025-08-21 14h02.19.944406 +0100,
139,0,139,0,178.5859660999995,,,,,,,,,,,,,,,,,178.57335869999952,140,blue,yellow,0.0,s,178.5859660999995,178.5859660999995,179.01166379999995,s,1.0980918999994174,1.0,0.4112409999997908,0.0,s,1,0.4112409999997908,None,179.01716250000027,0.0006069000010029413,0.0006069000010029413,0.6769208999994589,179.70040739999968,0.4112409999997908,,,,,,,,,,,01,2025-08-21_14h02.06.839,standardStroop,2023.2.1,59.89243318974531,2025-08-21 14h02.19.944406 +0100,
140,0,140,0,179.72340520000034,,,,,,,,,,,,,,,,,179.70240399999966,141,yellow,green,0.0,c,179.72340520000034,179.72340520000034,180.31140819999928,c,1.0980918999994174,1.0,0.5803042000006826,0.0,c,1,0.5803042000006826,None,180.31773579999935,0.0009361999982502311,0.0009361999982502311,0.5081058999985544,180.82727429999977,0.5803042000006826,,,,,,,,,,,01,2025-08-21_14h02.06.839,standardStroop,2023.2.1,59.89243318974531,2025-08-21 14h02.19.944406 +0100,
141,0,141,0,180.84782319999977,,,,,,,,,,,,,,,,,180.8294905999992,142,red,red,1.0,m,180.84782319999977,180.84782319999977,181.32813179999903,l,1.0980918999994174,0.0,0.4762154999989434,0.0,l,0,0.4762154999989434,None,181.33322190000035,0.000656899999739835,0.000656899999739835,0.6116347999995924,181.9499777000001,,,,,,,,,,,,01,2025-08-21_14h02.06.839,standardStroop,2023.2.1,59.89243318974531,2025-08-21 14h02.19.944406 +0100,
142,0,142,0,181.96173520000048,,,,,,,,,,,,,,,,,181.95109889999912,143,blue,yellow,0.0,s,181.96173520000048,181.96173520000048,182.41170330000023,s,1.0980918999994174,1.0,0.4409689999993134,0.0,s,1,0.4409689999993134,None,182.4184691999999,0.0009908000010909745,0.0009908000010909745,0.6474754999999277,183.071891399999,0.4409689999993134,,,,,,,,,,,01,2025-08-21_14h02.06.839,standardStroop,2023.2.1,59.89243318974531,2025-08-21 14h02.19.944406 +0100,
143,0,143,0,183.08894560000044,,,,,,,,,,,,,,,,,183.07368399999905,144,yellow,red,0.0,m,183.08894560000044,183.08894560000044,183.6284641000002,c,1.0980918999994174,0.0,0.5283321000006254,0.0,c,0,0.5283321000006254,None,183.63390789999903,0.0008447000000160187,0.0008447000000160187,0.5609026999991329,184.19642310000017,,,,,,,,,,,,01,2025-08-21_14h02.06.839,standardStroop,2023.2.1,59.89243318974531,2025-08-21 14h02.19.944406 +0100,
144,0,144,0,184.22327120000045,,,,,,,,,,,,,,,,,184.19856749999963,145,red,red,1.0,m,184.22327120000045,184.22327120000045,184.7282637999997,m,1.0980918999994174,1.0,0.4878521999999066,0.0,m,1,0.4878521999999066,None,184.73415729999942,0.000775999998950283,0.000775999998950283,0.5990941999989445,185.33664169999975,0.4878521999999066,,,,,,,,,,,01,2025-08-21_14h02.06.839,standardStroop,2023.2.1,59.89243318974531,2025-08-21 14h02.19.944406 +0100,
145,0,145,0,185.3484243999992,,,,,,,,,,,,,,,,,185.33812690000013,146,blue,blue,1.0,l,185.3484243999992,185.3484243999992,185.80987529999948,l,1.0980918999994174,1.0,0.4458883999996033,0.0,l,1,0.4458883999996033,None,185.81338359999972,0.00039900000047055073,0.00039900000047055073,0.6426006000001507,186.46170189999975,0.4458883999996033,,,,,,,,,,,01,2025-08-21_14h02.06.839,standardStroop,2023.2.1,59.89243318974531,2025-08-21 14h02.19.944406 +0100,
146,0,146,0,186.47556590000022,,,,,,,,,,,,,,,,,186.46316660000048,147,red,green,0.0,c,186.47556590000022,186.47556590000022,186.94581929999913,c,1.0980918999994174,1.0,0.46723779999956605,0.0,c,1,0.46723779999956605,None,186.95247930000005,0.0009792999990168028,0.0009792999990168028,0.6214112999987265,187.57955050000055,0.46723779999956605,,,,,,,,,,,01,2025-08-21_14h02.06.839,standardStroop,2023.2.1,59.89243318974531,2025-08-21 14h02.19.944406 +0100,
147,0,147,0,187.59475649999877,,,,,,,,,,,,,,,,,187.58084140000028,148,green,yellow,0.0,s,187.59475649999877,187.59475649999877,188.04488700000002,s,1.0980918999994174,1.0,0.43416289999913715,0.0,s,1,0.43416289999913715,None,188.051655199999,0.0010402000007161405,0.0010402000007161405,0.6533003999993525,188.70933870000044,0.43416289999913715,,,,,,,,,,,01,2025-08-21_14h02.06.839,standardStroop,2023.2.1,59.89243318974531,2025-08-21 14h02.19.944406 +0100,
148,0,148,0,188.72099530000014,,,,,,,,,,,,,,,,,188.71030260000043,149,red,red,1.0,m,188.72099530000014,188.72099530000014,189.42839249999997,c,1.0980918999994174,0.0,0.6969669999998587,0.0,c,0,0.6969669999998587,None,189.43617189999895,0.0010283000010531396,0.0010283000010531396,0.3914072000006854,189.83251539999947,,,,,,,,,,,,01,2025-08-21_14h02.06.839,standardStroop,2023.2.1,59.89243318974531,2025-08-21 14h02.19.944406 +0100,
149,0,149,0,189.84671890000027,,,,,,,,,,,,,,,,,189.8337319000002,150,yellow,green,0.0,c,189.84671890000027,189.84671890000027,190.44426139999996,c,1.0980918999994174,1.0,0.5948520000001736,0.0,c,1,0.5948520000001736,None,190.44910249999884,0.0005132000005687587,0.0005132000005687587,0.4937532000003557,190.94915839999885,0.5948520000001736,,,,,,,,,,,01,2025-08-21_14h02.06.839,standardStroop,2023.2.1,59.89243318974531,2025-08-21 14h02.19.944406 +0100,
150,0,150,0,190.96819870000036,,,,,,,,,,,,,,,,,190.95288419999997,151,green,green,1.0,c,190.96819870000036,190.96819870000036,192.05954699999893,nan,1.0980918999994174,0.0,,0.0,None,0,,,192.06282459999966,0.0006138000007922528,0.0006138000007922528,0.045605900000737165,192.12628509999922,,192.0748592,192.0748592,,,,,,,,,01,2025-08-21_14h02.06.839,standardStroop,2023.2.1,59.89243318974531,2025-08-21 14h02.19.944406 +0100,
151,0,151,0,192.14375970000037,,,,,,,,,,,,,,,,,192.1277126999994,152,yellow,blue,0.0,l,192.14375970000037,192.14375970000037,193.22616050000033,nan,1.0980918999994174,0.0,,0.0,None,0,,,193.2284652999988,0.00046320000001287553,0.00046320000001287553,0.04645859999982349,193.29615310000008,,193.24140950000037,193.24140950000037,,,,,,,,,01,2025-08-21_14h02.06.839,standardStroop,2023.2.1,59.89243318974531,2025-08-21 14h02.19.944406 +0100,
152,0,152,0,193.3080654000005,,,,,,,,,,,,,,,,,193.29790289999983,153,blue,red,0.0,m,193.3080654000005,193.3080654000005,194.39299559999927,nan,1.0980918999994174,0.0,,0.0,None,0,,,194.39540379999926,0.0005119000015838537,0.0005119000015838537,0.045969100001457264,194.45561780000025,,194.4079991999988,194.4079991999988,,,,,,,,,01,2025-08-21_14h02.06.839,standardStroop,2023.2.1,59.89243318974531,2025-08-21 14h02.19.944406 +0100,
153,0,153,0,194.46643790000053,,,,,,,,,,,,,,,,,194.45675879999908,154,green,green,1.0,c,194.46643790000053,194.46643790000053,195.55923979999898,nan,1.0980918999994174,0.0,,0.0,None,0,,,195.5622003999997,0.00042810000013560057,0.00042810000013560057,0.04594519999955082,195.6277697000005,,195.57475599999998,195.57475599999998,,,,,,,,,01,2025-08-21_14h02.06.839,standardStroop,2023.2.1,59.89243318974531,2025-08-21 14h02.19.944406 +0100,
154,0,154,0,195.64214999999967,,,,,,,,,,,,,,,,,195.62912349999897,155,blue,blue,1.0,l,195.64214999999967,195.64214999999967,196.72581499999978,nan,1.0980918999994174,0.0,,0.0,None,0,,,196.72814169999947,0.0004841999998461688,0.0004841999998461688,0.04636860000027809,196.78643209999973,,196.7411893999997,196.7411893999997,,,,,,,,,01,2025-08-21_14h02.06.839,standardStroop,2023.2.1,59.89243318974531,2025-08-21 14h02.19.944406 +0100,
155,0,155,0,196.80134309999994,,,,,,,,,,,,,,,,,196.78829489999953,156,yellow,red,0.0,m,196.80134309999994,196.80134309999994,197.8923003,nan,1.0980918999994174,0.0,,0.0,None,0,,,197.89411219999965,0.0004825000014534453,0.0004825000014534453,0.04713850000007369,197.95594209999945,,197.90790989999914,197.90790989999914,,,,,,,,,01,2025-08-21_14h02.06.839,standardStroop,2023.2.1,59.89243318974531,2025-08-21 14h02.19.944406 +0100,
156,0,156,0,197.96880429999874,,,,,,,,,,,,,,,,,197.95747519999895,157,red,green,0.0,c,197.96880429999874,197.96880429999874,199.0591891999993,nan,1.0980918999994174,0.0,,0.0,None,0,,,199.06235209999977,0.0006672999988950323,0.0006672999988950323,0.045758399999613175,199.12654099999963,,199.07418419999885,199.07418419999885,,,,,,,,,01,2025-08-21_14h02.06.839,standardStroop,2023.2.1,59.89243318974531,2025-08-21 14h02.19.944406 +0100,
157,0,157,0,199.14116939999985,,,,,,,,,,,,,,,,,199.12839319999875,158,blue,blue,1.0,l,199.14116939999985,199.14116939999985,200.22561829999904,nan,1.0980918999994174,0.0,,0.0,None,0,,,200.2272178000003,0.00031630000012228265,0.00031630000012228265,0.04738060000090627,200.28666189999967,,200.24096680000002,200.24096680000002,,,,,,,,,01,2025-08-21_14h02.06.839,standardStroop,2023.2.1,59.89243318974531,2025-08-21 14h02.19.944406 +0100,
158,0,158,0,200.29765469999984,,,,,,,,,,,,,,,,,200.28841209999882,159,green,yellow,0.0,s,200.29765469999984,200.29765469999984,201.39258489999884,nan,1.0980918999994174,0.0,,0.0,None,0,,,201.39528029999929,0.00047590000031050295,0.00047590000031050295,0.04618250000021362,201.45638429999963,,201.40799320000042,201.40799320000042,,,,,,,,,01,2025-08-21_14h02.06.839,standardStroop,2023.2.1,59.89243318974531,2025-08-21 14h02.19.944406 +0100,
159,0,159,0,201.47877659999904,,,,,,,,,,,,,,,,,201.45859050000035,160,blue,blue,1.0,l,201.47877659999904,201.47877659999904,202.57567550000022,nan,1.0980918999994174,0.0,,0.0,None,0,,,202.5779236999988,0.0005213000004005153,0.0005213000004005153,0.046532400001524366,202.63621389999935,,202.59068359999947,202.59068359999947,,,,,,,,,01,2025-08-21_14h02.06.839,standardStroop,2023.2.1,59.89243318974531,2025-08-21 14h02.19.944406 +0100,
160,0,160,0,202.65309510000043,,,,,,,,,,,,,,,,,202.63827329999913,161,yellow,yellow,1.0,s,202.65309510000043,202.65309510000043,203.74202100000002,nan,1.0980918999994174,0.0,,0.0,None,0,,,203.74528420000024,0.0006402999988495139,0.0006402999988495139,0.04558220000035362,203.80599710000024,,203.75728759999947,203.75728759999947,,,,,,,,,01,2025-08-21_14h02.06.839,standardStroop,2023.2.1,59.89243318974531,2025-08-21 14h02.19.944406 +0100,
161,0,161,0,203.82580299999972,,,,,,,,,,,,,,,,,203.8083998000002,162,red,blue,0.0,l,203.82580299999972,203.82580299999972,204.90874059999987,nan,1.0980918999994174,0.0,,0.0,None,0,,,204.91207550000036,0.0004869999993388774,0.0004869999993388774,0.045499800000470714,204.97697549999975,,204.92402629999924,204.92402629999924,,,,,,,,,01,2025-08-21_14h02.06.839,standardStroop,2023.2.1,59.89243318974531,2025-08-21 14h02.19.944406 +0100,
162,0,162,0,204.98456609999994,,,,,,,,,,,,,,,,,204.97766219999903,163,green,green,1.0,c,204.98456609999994,204.98456609999994,206.07566169999882,nan,1.0980918999994174,0.0,,0.0,None,0,,,206.0773833000003,0.00040300000000570435,0.00040300000000570435,0.04672440000103961,206.13570889999937,,206.0906355999996,206.0906355999996,,,,,,,,,01,2025-08-21_14h02.06.839,standardStroop,2023.2.1,59.89243318974531,2025-08-21 14h02.19.944406 +0100,
163,0,163,0,206.14637889999904,,,,,,,,,,,,,,,,,206.1369711999996,164,yellow,yellow,1.0,s,206.14637889999904,206.14637889999904,207.24294740000005,nan,1.0980918999994174,0.0,,0.0,None,0,,,207.24674810000033,0.0007795000001351582,0.0007795000001351582,0.044332999999824096,207.30629880000015,,207.2574798000005,207.2574798000005,,,,,,,,,01,2025-08-21_14h02.06.839,standardStroop,2023.2.1,59.89243318974531,2025-08-21 14h02.19.944406 +0100,
164,0,164,0,207.32784329999959,,,,,,,,,,,,,,,,,207.30910829999993,165,red,green,0.0,c,207.32784329999959,207.32784329999959,208.42648609999924,nan,1.0980918999994174,0.0,,0.0,None,0,,,208.4301617000001,0.0007447999996657018,0.0007447999996657018,0.04402959999970335,208.48699490000035,,208.44117919999917,208.44117919999917,,,,,,,,,01,2025-08-21_14h02.06.839,standardStroop,2023.2.1,59.89243318974531,2025-08-21 14h02.19.944406 +0100,
165,0,165,0,208.5107356999997,,,,,,,,,,,,,,,,,208.4894394999992,166,green,blue,0.0,l,208.5107356999997,208.5107356999997,209.60884029999943,nan,1.0980918999994174,0.0,,0.0,None,0,,,209.61265900000035,0.0007423000006383518,0.0007423000006383518,0.04493270000057237,209.67643399999906,,209.62398539999958,209.62398539999958,,,,,,,,,01,2025-08-21_14h02.06.839,standardStroop,2023.2.1,59.89243318974531,2025-08-21 14h02.19.944406 +0100,
166,0,166,0,209.69222489999993,,,,,,,,,,,,,,,,,209.6780146000001,167,blue,blue,1.0,l,209.69222489999993,209.69222489999993,210.77548790000037,nan,1.0980918999994174,0.0,,0.0,None,0,,,210.7782884999997,0.00047059999997145496,0.00047059999997145496,0.04593870000098832,210.836324599999,,210.7905114999994,210.7905114999994,,,,,,,,,01,2025-08-21_14h02.06.839,standardStroop,2023.2.1,59.89243318974531,2025-08-21 14h02.19.944406 +0100,
167,0,167,0,210.8499283000001,,,,,,,,,,,,,,,,,210.83768169999894,168,green,green,1.0,c,210.8499283000001,210.8499283000001,211.94191200000023,nan,1.0980918999994174,0.0,,0.0,None,0,,,211.94372870000007,0.00045590000081574544,0.00045590000081574544,0.04686240000046382,212.006190099999,,211.9569773000003,211.9569773000003,,,,,,,,,01,2025-08-21_14h02.06.839,standardStroop,2023.2.1,59.89243318974531,2025-08-21 14h02.19.944406 +0100,
168,0,168,0,212.0247858999992,,,,,,,,,,,,,,,,,212.0076229999995,169,yellow,red,0.0,m,212.0247858999992,212.0247858999992,213.1084097999992,nan,1.0980918999994174,0.0,,0.0,None,0,,,213.11158309999882,0.0006337999984680209,0.0006337999984680209,0.04593369999929564,213.1771596999988,,213.1239089999999,213.1239089999999,,,,,,,,,01,2025-08-21_14h02.06.839,standardStroop,2023.2.1,59.89243318974531,2025-08-21 14h02.19.944406 +0100,
169,0,169,0,213.19047460000002,,,,,,,,,,,,,,,,,213.1784663999988,170,red,blue,0.0,l,213.19047460000002,213.19047460000002,214.27486859999954,nan,1.0980918999994174,0.0,,0.0,None,0,,,214.27771349999966,0.0005916999998589745,0.0005916999998589745,0.04620230000000447,214.3364875999996,,214.29054309999992,214.29054309999992,,,,,,,,,01,2025-08-21_14h02.06.839,standardStroop,2023.2.1,59.89243318974531,2025-08-21 14h02.19.944406 +0100,
170,0,170,0,214.35456329999943,,,,,,,,,,,,,,,,,214.33842849999928,171,yellow,yellow,1.0,s,214.35456329999943,214.35456329999943,215.44122719999905,nan,1.0980918999994174,0.0,,0.0,None,0,,,215.44390199999907,0.0005359999995562248,0.0005359999995562248,0.046586200000092504,215.50642289999996,,215.45669559999988,215.45669559999988,,,,,,,,,01,2025-08-21_14h02.06.839,standardStroop,2023.2.1,59.89243318974531,2025-08-21 14h02.19.944406 +0100,
171,0,171,0,215.5198722999994,,,,,,,,,,,,,,,,,215.50763729999926,172,red,green,0.0,c,215.5198722999994,215.5198722999994,216.6077169,nan,1.0980918999994174,0.0,,0.0,None,0,,,216.61078459999953,0.0005906999995204387,0.0005906999995204387,0.046189400000002934,216.67558719999943,,216.62333709999984,216.62333709999984,,,,,,,,,01,2025-08-21_14h02.06.839,standardStroop,2023.2.1,59.89243318974531,2025-08-21 14h02.19.944406 +0100,
172,0,172,0,216.68608630000017,,,,,,,,,,,,,,,,,216.67666519999875,173,blue,red,0.0,m,216.68608630000017,216.68608630000017,217.7748689,nan,1.0980918999994174,0.0,,0.0,None,0,,,217.77759809999952,0.0005597999988822266,0.0005597999988822266,0.045925700000225333,217.83559409999907,,217.7902742999995,217.7902742999995,,,,,,,,,01,2025-08-21_14h02.06.839,standardStroop,2023.2.1,59.89243318974531,2025-08-21 14h02.19.944406 +0100,
173,0,173,0,217.84502199999952,,,,,,,,,,,,,,,,,217.8371076000003,174,green,green,1.0,c,217.84502199999952,217.84502199999952,218.9411772000003,nan,1.0980918999994174,0.0,,0.0,None,0,,,218.94330780000018,0.0004253999995853519,0.0004253999995853519,0.04707090000010794,219.00610349999988,,218.95680249999896,218.95680249999896,,,,,,,,,01,2025-08-21_14h02.06.839,standardStroop,2023.2.1,59.89243318974531,2025-08-21 14h02.19.944406 +0100,
174,0,174,0,219.01813910000055,,,,,,,,,,,,,,,,,219.00766199999998,175,yellow,blue,0.0,l,219.01813910000055,219.01813910000055,220.10753379999915,nan,1.0980918999994174,0.0,,0.0,None,0,,,220.1091894000001,0.00032019999889598694,0.00032019999889598694,0.04756979999910982,220.1766276999988,,220.12319399999978,220.12319399999978,,,,,,,,,01,2025-08-21_14h02.06.839,standardStroop,2023.2.1,59.89243318974531,2025-08-21 14h02.19.944406 +0100,
175,0,175,0,220.1913996000003,,,,,,,,,,,,,,,,,220.17859680000038,176,red,red,1.0,m,220.1913996000003,220.1913996000003,221.2745114999998,nan,1.0980918999994174,0.0,,0.0,None,0,,,221.27739680000013,0.0005572999998548767,0.0005572999998548767,0.045886999998401734,221.33660620000046,,221.28981959999874,221.28981959999874,,,,,,,,,01,2025-08-21_14h02.06.839,standardStroop,2023.2.1,59.89243318974531,2025-08-21 14h02.19.944406 +0100,
176,0,176,0,221.3521682999999,,,,,,,,,,,,,,,,,221.3383773000005,177,green,green,1.0,c,221.3521682999999,221.3521682999999,222.44149169999946,nan,1.0980918999994174,0.0,,0.0,None,0,,,222.44443759999922,0.0006369000002450775,0.0006369000002450775,0.04561900000044261,222.50577320000048,,222.45639669999946,222.45639669999946,,,,,,,,,01,2025-08-21_14h02.06.839,standardStroop,2023.2.1,59.89243318974531,2025-08-21 14h02.19.944406 +0100,
177,0,177,0,222.5163381000002,,,,,,,,,,,,,,,,,222.50678639999933,178,red,blue,0.0,l,222.5163381000002,222.5163381000002,223.6078376000005,nan,1.0980918999994174,0.0,,0.0,None,0,,,223.61019759999908,0.0003968999990320299,0.0003968999990320299,0.04629149999891524,223.67555139999968,,223.62294359999942,223.62294359999942,,,,,,,,,01,2025-08-21_14h02.06.839,standardStroop,2023.2.1,59.89243318974531,2025-08-21 14h02.19.944406 +0100,
178,0,178,0,223.68810660000054,,,,,,,,,,,,,,,,,223.67780689999927,179,blue,blue,1.0,l,223.68810660000054,223.68810660000054,224.7748928000001,nan,1.0980918999994174,0.0,,0.0,None,0,,,224.77842349999992,0.0008479999996779952,0.0008479999996779952,0.04537030000028608,224.83657349999885,,224.78972590000012,224.78972590000012,,,,,,,,,01,2025-08-21_14h02.06.839,standardStroop,2023.2.1,59.89243318974531,2025-08-21 14h02.19.944406 +0100,
179,0,179,0,224.8553955999996,,,,,,,,,,,,,,,,,224.83855699999913,180,green,red,0.0,m,224.8553955999996,224.8553955999996,225.94164789999923,nan,1.0980918999994174,0.0,,0.0,None,0,,,225.9451455999988,0.000753100001020357,0.000753100001020357,0.04501490000075137,226.00597670000025,,225.95674739999959,225.95674739999959,,,,,,,,,01,2025-08-21_14h02.06.839,standardStroop,2023.2.1,59.89243318974531,2025-08-21 14h02.19.944406 +0100,
180,0,180,0,226.0279088999996,,,,,,,,,,,,,,,,,226.0080863000003,181,yellow,yellow,1.0,s,226.0279088999996,226.0279088999996,227.12396669999907,nan,1.0980918999994174,0.0,,0.0,None,0,,,227.12648289999925,0.0004946999997628154,0.0004946999997628154,0.046307499998874846,227.18562009999914,,227.1395414999988,227.1395414999988,,,,,,,,,01,2025-08-21_14h02.06.839,standardStroop,2023.2.1,59.89243318974531,2025-08-21 14h02.19.944406 +0100,
181,0,181,0,227.20101780000005,,,,,,,,,,,,,,,,,227.18728969999938,182,blue,red,0.0,m,227.20101780000005,227.20101780000005,228.29082329999983,nan,1.0980918999994174,0.0,,0.0,None,0,,,228.29524779999883,0.0005573999987973366,0.0005573999987973366,0.04444639999928768,228.35697939999955,,228.30610809999962,228.30610809999962,,,,,,,,,01,2025-08-21_14h02.06.839,standardStroop,2023.2.1,59.89243318974531,2025-08-21 14h02.19.944406 +0100,
182,0,182,0,228.37346489999982,,,,,,,,,,,,,,,,,228.35858579999876,183,yellow,yellow,1.0,s,228.37346489999982,228.37346489999982,229.4576431000005,nan,1.0980918999994174,0.0,,0.0,None,0,,,229.46025290000034,0.0005470999985845992,0.0005470999985845992,0.0459562999985792,229.52593220000017,,229.4727557999995,229.4727557999995,,,,,,,,,01,2025-08-21_14h02.06.839,standardStroop,2023.2.1,59.89243318974531,2025-08-21 14h02.19.944406 +0100,
183,0,183,0,229.53774059999887,,,,,,,,,,,,,,,,,229.5271085000004,184,red,green,0.0,c,229.53774059999887,229.53774059999887,230.6249835999988,nan,1.0980918999994174,0.0,,0.0,None,0,,,230.6286812999988,0.0006620000003749738,0.0006620000003749738,0.04443130000072415,230.6867516000002,,230.63964990000022,230.63964990000022,,,,,,,,,01,2025-08-21_14h02.06.839,standardStroop,2023.2.1,59.89243318974531,2025-08-21 14h02.19.944406 +0100,
184,0,184,0,230.70374850000007,,,,,,,,,,,,,,,,,230.68859320000047,185,blue,yellow,0.0,s,230.70374850000007,230.70374850000007,231.79129089999878,nan,1.0980918999994174,0.0,,0.0,None,0,,,231.79429159999927,0.0005354999993869569,0.0005354999993869569,0.04563830000006419,231.85591529999874,,231.8061834,231.8061834,,,,,,,,,01,2025-08-21_14h02.06.839,standardStroop,2023.2.1,59.89243318974531,2025-08-21 14h02.19.944406 +0100,
185,0,185,0,231.8715873000001,,,,,,,,,,,,,,,,,231.85751080000045,186,red,red,1.0,m,231.8715873000001,231.8715873000001,232.95699579999928,nan,1.0980918999994174,0.0,,0.0,None,0,,,232.95977839999978,0.0005490000003192108,0.0005490000003192108,0.046481499999572407,233.02605760000006,,232.97276729999976,232.97276729999976,,,,,,,,,01,2025-08-21_14h02.06.839,standardStroop,2023.2.1,59.89243318974531,2025-08-21 14h02.19.944406 +0100,
186,0,186,0,233.04309869999997,,,,,,,,,,,,,,,,,233.02764000000025,187,yellow,yellow,1.0,s,233.04309869999997,233.04309869999997,234.14126529999885,nan,1.0980918999994174,0.0,,0.0,None,0,,,234.14649110000028,0.0008333999994647456,0.0008333999994647456,0.0430090999998356,234.20590149999953,,234.1559331999997,234.1559331999997,,,,,,,,,01,2025-08-21_14h02.06.839,standardStroop,2023.2.1,59.89243318974531,2025-08-21 14h02.19.944406 +0100,
187,0,187,0,234.21653100000003,,,,,,,,,,,,,,,,,234.207172299999,188,green,blue,0.0,l,234.21653100000003,234.21653100000003,235.30791769999996,nan,1.0980918999994174,0.0,,0.0,None,0,,,235.31170740000016,0.0008527999998477753,0.0008527999998477753,0.044663099999525,235.3763825999995,,235.32297499999913,235.32297499999913,,,,,,,,,01,2025-08-21_14h02.06.839,standardStroop,2023.2.1,59.89243318974531,2025-08-21 14h02.19.944406 +0100,
188,0,188,0,235.39868059999935,,,,,,,,,,,,,,,,,235.3782728999995,189,red,green,0.0,c,235.39868059999935,235.39868059999935,236.4908345999993,nan,1.0980918999994174,0.0,,0.0,None,0,,,236.49372419999963,0.0005794999997306149,0.0005794999997306149,0.04547370000000228,236.55661549999968,,236.50589050000053,236.50589050000053,,,,,,,,,01,2025-08-21_14h02.06.839,standardStroop,2023.2.1,59.89243318974531,2025-08-21 14h02.19.944406 +0100,
189,0,189,0,236.57550959999935,,,,,,,,,,,,,,,,,236.558803599999,190,blue,blue,1.0,l,236.57550959999935,236.57550959999935,237.67410649999874,nan,1.0980918999994174,0.0,,0.0,None,0,,,237.67765729999883,0.0007573999992018798,0.0007573999992018798,0.04522799999904237,237.73603939999884,,237.68948529999943,237.68948529999943,,,,,,,,,01,2025-08-21_14h02.06.839,standardStroop,2023.2.1,59.89243318974531,2025-08-21 14h02.19.944406 +0100,
190,0,190,0,237.75614940000014,,,,,,,,,,,,,,,,,237.7381648999999,191,red,green,0.0,c,237.75614940000014,237.75614940000014,238.84115969999948,nan,1.0980918999994174,0.0,,0.0,None,0,,,238.84499669999968,0.0007621000004292,0.0007621000004292,0.04416480000145384,238.9063146999997,,238.85589020000043,238.85589020000043,,,,,,,,,01,2025-08-21_14h02.06.839,standardStroop,2023.2.1,59.89243318974531,2025-08-21 14h02.19.944406 +0100,
191,0,191,0,238.92475659999945,,,,,,,,,,,,,,,,,238.90819059999922,192,green,green,1.0,c,238.92475659999945,238.92475659999945,240.0074285999999,nan,1.0980918999994174,0.0,,0.0,None,0,,,240.0105795999989,0.0007697000000916887,0.0007697000000916887,0.04500170000028447,240.07574190000014,,240.02227479999965,240.02227479999965,,,,,,,,,01,2025-08-21_14h02.06.839,standardStroop,2023.2.1,59.89243318974531,2025-08-21 14h02.19.944406 +0100,
192,0,192,0,240.09118769999986,,,,,,,,,,,,,,,,,240.07714010000018,193,yellow,yellow,1.0,s,240.09118769999986,240.09118769999986,241.17414819999976,nan,1.0980918999994174,0.0,,0.0,None,0,,,241.17783249999957,0.0008409999991272343,0.0008409999991272343,0.04489579999972193,241.23678519999885,,241.18925429999945,241.18925429999945,,,,,,,,,01,2025-08-21_14h02.06.839,standardStroop,2023.2.1,59.89243318974531,2025-08-21 14h02.19.944406 +0100,
193,0,193,0,241.25773329999902,,,,,,,,,,,,,,,,,241.23897769999894,194,blue,green,0.0,c,241.25773329999902,241.25773329999902,242.34075029999985,nan,1.0980918999994174,0.0,,0.0,None,0,,,242.3444141,0.0006969000005483394,0.0006969000005483394,0.044463000000178,242.40580099999897,,242.35551779999878,242.35551779999878,,,,,,,,,01,2025-08-21_14h02.06.839,standardStroop,2023.2.1,59.89243318974531,2025-08-21 14h02.19.944406 +0100,
194,0,194,0,242.42072039999948,,,,,,,,,,,,,,,,,242.4074657000001,195,green,red,0.0,m,242.42072039999948,242.42072039999948,243.5074038999992,nan,1.0980918999994174,0.0,,0.0,None,0,,,243.5109257999993,0.0008324999998876592,0.0008324999998876592,0.04518540000026405,243.57623129999956,,243.5223874000003,243.5223874000003,,,,,,,,,01,2025-08-21_14h02.06.839,standardStroop,2023.2.1,59.89243318974531,2025-08-21 14h02.19.944406 +0100,
195,0,195,0,243.60068750000028,,,,,,,,,,,,,,,,,243.57861969999976,196,red,red,1.0,m,243.60068750000028,243.60068750000028,244.69064640000033,nan,1.0980918999994174,0.0,,0.0,None,0,,,244.69443879999926,0.0007487000002583954,0.0007487000002583954,0.044642799999564886,244.75614180000048,,244.70531459999984,244.70531459999984,,,,,,,,,01,2025-08-21_14h02.06.839,standardStroop,2023.2.1,59.89243318974531,2025-08-21 14h02.19.944406 +0100,
196,0,196,0,244.7727818000003,,,,,,,,,,,,,,,,,244.7577237000005,197,green,green,1.0,c,244.7727818000003,244.7727818000003,245.85728550000022,nan,1.0980918999994174,0.0,,0.0,None,0,,,245.86110929999995,0.0007065000008878997,0.0007065000008878997,0.04440930000055232,245.92699240000002,,245.87204229999952,245.87204229999952,,,,,,,,,01,2025-08-21_14h02.06.839,standardStroop,2023.2.1,59.89243318974531,2025-08-21 14h02.19.944406 +0100,
197,0,197,0,245.94486519999919,,,,,,,,,,,,,,,,,245.92901039999924,198,blue,yellow,0.0,s,245.94486519999919,245.94486519999919,247.04055770000014,nan,1.0980918999994174,0.0,,0.0,None,0,,,247.04428279999956,0.0007850000001781154,0.0007850000001781154,0.04468120000092313,247.1064666000002,,247.0555363000003,247.0555363000003,,,,,,,,,01,2025-08-21_14h02.06.839,standardStroop,2023.2.1,59.89243318974531,2025-08-21 14h02.19.944406 +0100,
198,0,198,0,247.12557679999918,,,,,,,,,,,,,,,,,247.1084222999998,199,green,red,0.0,m,247.12557679999918,247.12557679999918,248.22402460000012,nan,1.0980918999994174,0.0,,0.0,None,0,,,248.22698929999933,0.000515800000357558,0.000515800000357558,0.04549299999962386,248.28638800000044,,248.2386733000003,248.2386733000003,,,,,,,,,01,2025-08-21_14h02.06.839,standardStroop,2023.2.1,59.89243318974531,2025-08-21 14h02.19.944406 +0100,
199,0,199,0,248.3035258,,,,,,,,,,,,,,,,,248.28873629999907,200,blue,blue,1.0,l,248.3035258,248.3035258,249.3906592000003,nan,1.0980918999994174,0.0,,0.0,None,0,,,249.3943846000002,0.0006496999994851649,0.0006496999994851649,0.04440439999962109,249.45875859999978,,249.40509980000024,249.40509980000024,,,,,,,,,01,2025-08-21_14h02.06.839,standardStroop,2023.2.1,59.89243318974531,2025-08-21 14h02.19.944406 +0100,
200,0,200,0,249.47800300000017,,,,,,,,,,,,,,,,,249.46054899999945,201,green,green,1.0,c,249.47800300000017,249.47800300000017,250.57302080000045,nan,1.0980918999994174,0.0,,0.0,None,0,,,250.5761308000001,0.000558299998374423,0.000558299998374423,0.04578129999936209,250.63605879999886,,250.58812399999988,250.58812399999988,,,,,,,,,01,2025-08-21_14h02.06.839,standardStroop,2023.2.1,59.89243318974531,2025-08-21 14h02.19.944406 +0100,
201,0,201,0,250.64740399999937,,,,,,,,,,,,,,,,,250.63798870000028,202,yellow,blue,0.0,l,250.64740399999937,250.64740399999937,251.7403338999993,nan,1.0980918999994174,0.0,,0.0,None,0,,,251.7437145999993,0.000974599999608472,0.000974599999608472,0.04523199999857752,251.8062016999993,,251.75468209999963,251.75468209999963,,,,,,,,,01,2025-08-21_14h02.06.839,standardStroop,2023.2.1,59.89243318974531,2025-08-21 14h02.19.944406 +0100,
202,0,202,0,251.82540119999976,,,,,,,,,,,,,,,,,251.80842279999888,203,red,red,1.0,m,251.82540119999976,251.82540119999976,252.92240759999913,nan,1.0980918999994174,0.0,,0.0,None,0,,,252.92386909999914,0.0002918999998655636,0.0002918999998655636,0.047674899999037734,252.98738819999926,,252.93814100000054,252.93814100000054,,,,,,,,,01,2025-08-21_14h02.06.839,standardStroop,2023.2.1,59.89243318974531,2025-08-21 14h02.19.944406 +0100,
203,0,203,0,252.9997055999993,,,,,,,,,,,,,,,,,252.9884920000004,204,blue,blue,1.0,l,252.9997055999993,252.9997055999993,254.08922229999916,nan,1.0980918999994174,0.0,,0.0,None,0,,,254.09075349999875,0.0003206000001227949,0.0003206000001227949,0.04745580000053451,254.15584949999902,,254.10474590000013,254.10474590000013,,,,,,,,,01,2025-08-21_14h02.06.839,standardStroop,2023.2.1,59.89243318974531,2025-08-21 14h02.19.944406 +0100,
204,0,204,0,254.16719659999944,,,,,,,,,,,,,,,,,254.15738779999992,205,green,red,0.0,m,254.16719659999944,254.16719659999944,255.25583720000031,nan,1.0980918999994174,0.0,,0.0,None,0,,,255.25804979999884,0.0003386000007594703,0.0003386000007594703,0.04698600000119768,255.32672029999958,,255.27137389999916,255.27137389999916,,,,,,,,,01,2025-08-21_14h02.06.839,standardStroop,2023.2.1,59.89243318974531,2025-08-21 14h02.19.944406 +0100,
205,0,205,0,255.34110130000045,,,,,,,,,,,,,,,,,255.3284908000005,206,red,blue,0.0,l,255.34110130000045,255.34110130000045,256.42271939999955,nan,1.0980918999994174,0.0,,0.0,None,0,,,256.42452760000015,0.00030189999961294234,0.00030189999961294234,0.04684799999995448,256.4861471000004,,256.4382637999988,256.4382637999988,,,,,,,,,01,2025-08-21_14h02.06.839,standardStroop,2023.2.1,59.89243318974531,2025-08-21 14h02.19.944406 +0100,
206,0,206,0,256.4977361000001,,,,,,,,,,,,,,,,,256.48756929999945,207,green,green,1.0,c,256.4977361000001,256.4977361000001,257.5890352999995,nan,1.0980918999994174,0.0,,0.0,None,0,,,257.5911813999992,0.00040099999932863284,0.00040099999932863284,0.04685299999982817,257.6580154000003,,257.6046222999994,257.6046222999994,,,,,,,,,01,2025-08-21_14h02.06.839,standardStroop,2023.2.1,59.89243318974531,2025-08-21 14h02.19.944406 +0100,
207,0,207,0,257.66638520000015,,,,,,,,,,,,,,,,,257.65889179999976,208,yellow,yellow,1.0,s,257.66638520000015,257.66638520000015,258.7557853999988,nan,1.0980918999994174,0.0,,0.0,None,0,,,258.75872609999897,0.0005552999991778051,0.0005552999991778051,0.04661679999844637,258.8160628000005,,258.7716237000004,258.7716237000004,,,,,,,,,01,2025-08-21_14h02.06.839,standardStroop,2023.2.1,59.89243318974531,2025-08-21 14h02.19.944406 +0100,
208,0,208,0,258.8333526999995,,,,,,,,,,,,,,,,,258.8178914,209,green,red,0.0,m,258.8333526999995,258.8333526999995,259.92290069999945,nan,1.0980918999994174,0.0,,0.0,None,0,,,259.92627840000023,0.0006344000012177275,0.0006344000012177275,0.04514560000097845,259.9865004000003,,259.93769539999994,259.93769539999994,,,,,,,,,01,2025-08-21_14h02.06.839,standardStroop,2023.2.1,59.89243318974531,2025-08-21 14h02.19.944406 +0100,
209,0,209,0,260.00490720000016,,,,,,,,,,,,,,,,,259.9879925000005,210,yellow,blue,0.0,l,260.00490720000016,260.00490720000016,261.09037979999994,nan,1.0980918999994174,0.0,,0.0,None,0,,,261.0946458999988,0.0008515999998053303,0.0008515999998053303,0.04395780000049854,261.1562763999991,,261.1047428999991,261.1047428999991,,,,,,,,,01,2025-08-21_14h02.06.839,standardStroop,2023.2.1,59.89243318974531,2025-08-21 14h02.19.944406 +0100,
210,0,210,0,261.1765421,,,,,,,,,,,,,,,,,261.1593063,211,green,green,1.0,c,261.1765421,261.1765421,262.2731354999996,nan,1.0980918999994174,0.0,,0.0,None,0,,,262.2765720999996,0.0007738000003882917,0.0007738000003882917,0.044940899999346584,262.3364170999994,,262.28816910000023,262.28816910000023,,,,,,,,,01,2025-08-21_14h02.06.839,standardStroop,2023.2.1,59.89243318974531,2025-08-21 14h02.19.944406 +0100,
211,0,211,0,262.3541303999991,,,,,,,,,,,,,,,,,262.33832970000003,212,blue,blue,1.0,l,262.3541303999991,262.3541303999991,263.43888809999953,nan,1.0980918999994174,0.0,,0.0,None,0,,,263.44191019999926,0.0005813999996462371,0.0005813999996462371,0.045862299999498646,263.50655240000015,,263.4543725000003,263.4543725000003,,,,,,,,,01,2025-08-21_14h02.06.839,standardStroop,2023.2.1,59.89243318974531,2025-08-21 14h02.19.944406 +0100,
212,0,212,0,263.5202582999991,,,,,,,,,,,,,,,,,263.507767699999,213,yellow,red,0.0,m,263.5202582999991,263.5202582999991,264.605588299999,nan,1.0980918999994174,0.0,,0.0,None,0,,,264.60785469999973,0.0003885000005539041,0.0003885000005539041,0.04673970000112604,264.66614949999894,,264.6211870999996,264.6211870999996,,,,,,,,,01,2025-08-21_14h02.06.839,standardStroop,2023.2.1,59.89243318974531,2025-08-21 14h02.19.944406 +0100,
213,0,213,0,264.6772870999994,,,,,,,,,,,,,,,,,264.66743639999913,214,green,green,1.0,c,264.6772870999994,264.6772870999994,265.7724352000005,nan,1.0980918999994174,0.0,,0.0,None,0,,,265.7760304000003,0.0008312999998452142,0.0008312999998452142,0.044800199999372126,265.83636079999997,,265.7875908999995,265.7875908999995,,,,,,,,,01,2025-08-21_14h02.06.839,standardStroop,2023.2.1,59.89243318974531,2025-08-21 14h02.19.944406 +0100,
214,0,214,0,265.8503705999992,,,,,,,,,,,,,,,,,265.83822209999926,215,blue,blue,1.0,l,265.8503705999992,265.8503705999992,266.93968759999916,nan,1.0980918999994174,0.0,,0.0,None,0,,,266.94294210000044,0.000768600000810693,0.000768600000810693,0.04497540000011213,267.00701350000054,,266.95414439999877,266.95414439999877,,,,,,,,,01,2025-08-21_14h02.06.839,standardStroop,2023.2.1,59.89243318974531,2025-08-21 14h02.19.944406 +0100,
215,0,215,0,267.0283949000004,,,,,,,,,,,,,,,,,267.0106109999997,216,yellow,green,0.0,c,267.0283949000004,267.0283949000004,268.1216055999994,nan,1.0980918999994174,0.0,,0.0,None,0,,,268.1233484000004,0.00038470000072265975,0.00038470000072265975,0.047333599999547005,268.1871658,,268.1373120999997,268.1373120999997,,,,,,,,,01,2025-08-21_14h02.06.839,standardStroop,2023.2.1,59.89243318974531,2025-08-21 14h02.19.944406 +0100,
,,,,,,,,,,,,,,,,,,,,,,,,,,,,,,,,,,,,,,,,,,,,,,,268.18727409999883,268.2134217999992,268.2134217999992,268.2134217999992,270.0415897999992,space,1.8256400999998732,None,01,2025-08-21_14h02.06.839,standardStroop,2023.2.1,59.89243318974531,2025-08-21 14h02.19.944406 +0100,
